timestep,L_acc_x,L_acc_y,L_acc_z,L_gyro_x,L_gyro_y,L_gyro_z,L_pressure_1,L_pressure_2,L_pressure_3,L_pressure_4,L_pressure_5,L_pressure_6,L_pressure_7,L_pressure_8,L_pressure_9,L_pressure_10,L_pressure_11,L_pressure_12,L_pressure_13,L_pressure_14,L_pressure_15,L_pressure_16,L_pressure_17,L_pressure_18,L_pressure_19,L_pressure_20,L_pressure_21,L_pressure_22,L_pressure_23,L_pressure_24,L_pressure_25,L_pressure_26,L_pressure_27,L_pressure_28,L_pressure_29,L_pressure_30,L_pressure_31,L_pressure_32,L_pressure_33,L_pressure_34,L_pressure_35,L_pressure_36,L_pressure_37,L_pressure_38,L_pressure_39,L_pressure_40,R_acc_x,R_acc_y,R_acc_z,R_gyro_x,R_gyro_y,R_gyro_z,R_pressure_1,R_pressure_2,R_pressure_3,R_pressure_4,R_pressure_5,R_pressure_6,R_pressure_7,R_pressure_8,R_pressure_9,R_pressure_10,R_pressure_11,R_pressure_12,R_pressure_13,R_pressure_14,R_pressure_15,R_pressure_16,R_pressure_17,R_pressure_18,R_pressure_19,R_pressure_20,R_pressure_21,R_pressure_22,R_pressure_23,R_pressure_24,R_pressure_25,R_pressure_26,R_pressure_27,R_pressure_28,R_pressure_29,R_pressure_30,R_pressure_31,R_pressure_32,R_pressure_33,R_pressure_34,R_pressure_35,R_pressure_36,R_pressure_37,R_pressure_38,R_pressure_39,R_pressure_40
10.07,-385,-116,-2015,-111,-13,20,0,0,0,0,0,0,0,0,7,136,115,41,178,204,245,31,0,0,0,0,16,186,3,4,227,5,8,120,22,145,201,18,207,253,89,222,27,19,29,168,0,0,0,0,0,0,0,0,0,0,0,0,0,0,0,0,0,0,0,0,0,0,0,0,0,0,0,0,0,0,0,0,0,0,0,0,0,0,0,0,0,0,0,0,0,0
10.08,-385,-116,-2015,-111,-13,20,0,0,0,0,0,0,0,0,7,136,115,41,178,204,245,31,0,0,0,0,16,186,3,4,227,5,8,120,22,145,201,18,207,253,89,222,27,19,29,168,0,0,0,0,0,0,0,0,0,0,0,0,0,0,0,0,0,0,0,0,0,0,0,0,0,0,0,0,0,0,0,0,0,0,0,0,0,0,0,0,0,0,0,0,0,0
10.09,-385,-116,-2015,-111,-13,20,0,0,0,0,0,0,0,0,7,136,115,41,178,204,245,31,0,0,0,0,16,186,3,4,227,5,8,120,22,145,201,18,207,253,89,222,27,19,29,168,0,0,0,0,0,0,0,0,0,0,0,0,0,0,0,0,0,0,0,0,0,0,0,0,0,0,0,0,0,0,0,0,0,0,0,0,0,0,0,0,0,0,0,0,0,0
10.1,-352,-110,-2017,-112,-31,24,0,0,0,0,0,0,1,0,19,152,155,49,0,0,0,0,0,0,0,0,46,222,5,15,71,9,24,158,84,215,42,41,76,175,91,233,67,13,97,84,0,0,0,0,0,0,0,0,0,0,0,0,0,0,0,0,0,0,0,0,0,0,0,0,0,0,0,0,0,0,0,0,0,0,0,0,0,0,0,0,0,0,0,0,0,0
10.11,-381,-171,-1996,-13,32,-2,0,0,0,0,0,0,0,0,86,183,185,142,0,0,0,0,0,0,0,0,46,221,7,26,129,15,97,203,142,40,6,38,83,210,139,162,239,125,216,179,0,0,0,0,0,0,0,0,0,0,0,0,0,0,0,0,0,0,0,0,0,0,0,0,0,0,0,0,0,0,0,0,0,0,0,0,0,0,0,0,0,0,0,0,0,0
10.12,-414,-168,-1987,-4,47,-7,0,0,0,0,0,0,0,0,97,192,186,153,0,0,0,0,0,0,0,0,47,227,8,29,131,16,103,203,151,42,1,42,79,206,133,151,241,116,195,173,0,0,0,0,0,0,0,0,0,0,0,0,0,0,0,0,0,0,0,0,0,0,0,0,0,0,0,0,0,0,0,0,0,0,0,0,0,0,0,0,0,0,0,0,0,0
10.13,-385,-131,-2002,4,61,-12,0,0,0,0,0,0,0,0,123,195,193,165,0,0,0,0,0,0,0,0,47,225,9,31,129,18,110,203,164,46,253,42,79,206,125,134,239,108,166,164,0,0,0,0,0,0,0,0,0,0,0,0,0,0,0,0,0,0,0,0,0,0,0,0,0,0,0,0,0,0,0,0,0,0,0,0,0,0,0,0,0,0,0,0,0,0
10.14,-385,-131,-2002,4,61,-12,0,0,0,0,0,0,0,0,123,195,193,165,0,0,0,0,0,0,0,0,47,225,9,31,129,18,110,203,164,46,253,42,79,206,125,134,239,108,166,164,0,0,0,0,0,0,0,0,0,0,0,0,0,0,0,0,0,0,0,0,0,0,0,0,0,0,0,0,0,0,0,0,0,0,0,0,0,0,0,0,0,0,0,0,0,0
10.15,-385,-131,-2002,4,61,-12,0,0,0,0,0,0,0,0,123,195,193,165,0,0,0,0,0,0,0,0,47,225,9,31,129,18,110,203,164,46,253,42,79,206,125,134,239,108,166,164,0,0,0,0,0,0,0,0,0,0,0,0,0,0,0,0,0,0,0,0,0,0,0,0,0,0,0,0,0,0,0,0,0,0,0,0,0,0,0,0,0,0,0,0,0,0
10.16,-385,-131,-2002,4,61,-12,0,0,0,0,0,0,0,0,123,195,193,165,0,0,0,0,0,0,0,0,47,225,9,31,129,18,110,203,164,46,253,42,79,206,125,134,239,108,166,164,0,0,0,0,0,0,0,0,0,0,0,0,0,0,0,0,0,0,0,0,0,0,0,0,0,0,0,0,0,0,0,0,0,0,0,0,0,0,0,0,0,0,0,0,0,0
10.17,-385,-131,-2002,4,61,-12,0,0,0,0,0,0,0,0,123,195,193,165,0,0,0,0,0,0,0,0,47,225,9,31,129,18,110,203,164,46,253,42,79,206,125,134,239,108,166,164,0,0,0,0,0,0,0,0,0,0,0,0,0,0,0,0,0,0,0,0,0,0,0,0,0,0,0,0,0,0,0,0,0,0,0,0,0,0,0,0,0,0,0,0,0,0
10.18,-385,-131,-2002,4,61,-12,0,0,0,0,0,0,0,0,123,195,193,165,0,0,0,0,0,0,0,0,47,225,9,31,129,18,110,203,164,46,253,42,79,206,125,134,239,108,166,164,0,0,0,0,0,0,0,0,0,0,0,0,0,0,0,0,0,0,0,0,0,0,0,0,0,0,0,0,0,0,0,0,0,0,0,0,0,0,0,0,0,0,0,0,0,0
10.19,-385,-131,-2002,4,61,-12,0,0,0,0,0,0,0,0,123,195,193,165,0,0,0,0,0,0,0,0,47,225,9,31,129,18,110,203,164,46,253,42,79,206,125,134,239,108,166,164,0,0,0,0,0,0,0,0,0,0,0,0,0,0,0,0,0,0,0,0,0,0,0,0,0,0,0,0,0,0,0,0,0,0,0,0,0,0,0,0,0,0,0,0,0,0
10.2,-385,-131,-2002,4,61,-12,0,0,0,0,0,0,0,0,123,195,193,165,0,0,0,0,0,0,0,0,47,225,9,31,129,18,110,203,164,46,253,42,79,206,125,134,239,108,166,164,0,0,0,0,0,0,0,0,0,0,0,0,0,0,0,0,0,0,0,0,0,0,0,0,0,0,0,0,0,0,0,0,0,0,0,0,0,0,0,0,0,0,0,0,0,0
10.21,-385,-131,-2002,4,61,-12,0,0,0,0,0,0,0,0,123,195,193,165,0,0,0,0,0,0,0,0,47,225,9,31,129,18,110,203,164,46,253,42,79,206,125,134,239,108,166,164,0,0,0,0,0,0,0,0,0,0,0,0,0,0,0,0,0,0,0,0,0,0,0,0,0,0,0,0,0,0,0,0,0,0,0,0,0,0,0,0,0,0,0,0,0,0
10.22,-385,-131,-2002,4,61,-12,0,0,0,0,0,0,0,0,123,195,193,165,0,0,0,0,0,0,0,0,47,225,9,31,129,18,110,203,164,46,253,42,79,206,125,134,239,108,166,164,0,0,0,0,0,0,0,0,0,0,0,0,0,0,0,0,0,0,0,0,0,0,0,0,0,0,0,0,0,0,0,0,0,0,0,0,0,0,0,0,0,0,0,0,0,0
10.23,-385,-131,-2002,4,61,-12,0,0,0,0,0,0,0,0,123,195,193,165,0,0,0,0,0,0,0,0,47,225,9,31,129,18,110,203,164,46,253,42,79,206,125,134,239,108,166,164,0,0,0,0,0,0,0,0,0,0,0,0,0,0,0,0,0,0,0,0,0,0,0,0,0,0,0,0,0,0,0,0,0,0,0,0,0,0,0,0,0,0,0,0,0,0
10.24,-385,-131,-2002,4,61,-12,0,0,0,0,0,0,0,0,123,195,193,165,0,0,0,0,0,0,0,0,47,225,9,31,129,18,110,203,164,46,253,42,79,206,125,134,239,108,166,164,0,0,0,0,0,0,0,0,0,0,0,0,0,0,0,0,0,0,0,0,0,0,0,0,0,0,0,0,0,0,0,0,0,0,0,0,0,0,0,0,0,0,0,0,0,0
10.25,-376,-110,-2006,11,69,-14,0,0,0,0,0,0,0,0,132,204,197,194,0,0,0,0,0,0,0,0,47,231,10,32,129,19,113,201,171,49,254,39,77,203,111,122,234,94,159,157,0,0,0,0,0,0,0,0,0,0,0,0,0,0,0,0,0,0,0,0,0,0,0,0,0,0,0,0,0,0,0,0,0,0,0,0,0,0,0,0,0,0,0,0,0,0
10.26,-325,-166,-1978,46,72,-7,0,0,0,0,0,1,2,49,163,244,207,58,0,0,0,0,0,0,0,0,92,245,15,40,126,24,123,194,195,42,243,33,62,191,16,105,228,16,99,98,0,0,0,0,0,0,0,0,0,0,0,0,0,0,0,0,0,0,0,0,0,0,0,0,0,0,0,0,0,0,0,0,0,0,0,0,0,0,0,0,0,0,0,0,0,0
10.27,-368,-158,-1964,50,68,-5,0,0,0,0,1,1,1,49,196,253,198,69,0,0,0,0,0,0,0,0,96,3,16,41,127,26,124,194,196,38,245,33,66,181,7,86,237,12,83,89,0,0,0,0,0,0,0,0,0,0,0,0,0,0,0,0,0,0,0,0,0,0,0,0,0,0,0,0,0,0,0,0,0,0,0,0,0,0,0,0,0,0,0,0,0,0
10.28,-300,-118,-1946,51,61,-2,0,0,0,0,1,2,1,59,210,21,207,75,0,0,0,0,0,0,0,0,99,0,17,42,125,25,123,190,212,37,245,33,59,172,254,68,241,4,74,69,0,0,0,0,0,0,0,0,0,0,0,0,0,0,0,0,0,0,0,0,0,0,0,0,0,0,0,0,0,0,0,0,0,0,0,0,0,0,0,0,0,0,0,0,0,0
10.29,-300,-118,-1946,51,61,-2,0,0,0,0,1,2,1,59,210,21,207,75,0,0,0,0,0,0,0,0,99,0,17,42,125,25,123,190,212,37,245,33,59,172,254,68,241,4,74,69,0,0,0,0,0,0,0,0,0,0,0,0,0,0,0,0,0,0,0,0,0,0,0,0,0,0,0,0,0,0,0,0,0,0,0,0,0,0,0,0,0,0,0,0,0,0
10.3,-300,-118,-1946,51,61,-2,0,0,0,0,1,2,1,59,210,21,207,75,0,0,0,0,0,0,0,0,99,0,17,42,125,25,123,190,212,37,245,33,59,172,254,68,241,4,74,69,0,0,0,0,0,0,0,0,0,0,0,0,0,0,0,0,0,0,0,0,0,0,0,0,0,0,0,0,0,0,0,0,0,0,0,0,0,0,0,0,0,0,0,0,0,0
10.31,-300,-118,-1946,51,61,-2,0,0,0,0,1,2,1,59,210,21,207,75,0,0,0,0,0,0,0,0,99,0,17,42,125,25,123,190,212,37,245,33,59,172,254,68,241,4,74,69,0,0,0,0,0,0,0,0,0,0,0,0,0,0,0,0,0,0,0,0,0,0,0,0,0,0,0,0,0,0,0,0,0,0,0,0,0,0,0,0,0,0,0,0,0,0
10.32,-300,-118,-1946,51,61,-2,0,0,0,0,1,2,1,59,210,21,207,75,0,0,0,0,0,0,0,0,99,0,17,42,125,25,123,190,212,37,245,33,59,172,254,68,241,4,74,69,0,0,0,0,0,0,0,0,0,0,0,0,0,0,0,0,0,0,0,0,0,0,0,0,0,0,0,0,0,0,0,0,0,0,0,0,0,0,0,0,0,0,0,0,0,0
10.33,-388,-146,-1932,50,57,-1,0,0,0,0,2,3,3,64,237,58,216,89,0,0,0,0,0,0,0,0,105,14,18,43,122,27,123,180,225,36,251,32,53,158,239,51,230,255,51,45,0,0,0,0,0,0,0,0,0,0,0,0,0,0,0,0,0,0,0,0,0,0,0,0,0,0,0,0,0,0,0,0,0,0,0,0,0,0,0,0,0,0,0,0,0,0
10.34,-359,-142,-1901,41,57,-3,0,0,0,0,2,2,3,75,255,81,220,107,0,0,0,0,0,0,0,0,108,25,20,45,121,26,124,177,227,35,250,34,47,143,218,39,223,242,35,28,0,0,0,0,0,0,0,0,0,0,0,0,0,0,0,0,0,0,0,0,0,0,0,0,0,0,0,0,0,0,0,0,0,0,0,0,0,0,0,0,0,0,0,0,0,0
10.35,-333,-78,-1986,73,6,-12,4,6,99,0,4,4,37,179,158,166,211,61,218,7,170,221,0,0,0,0,99,15,5,28,103,8,114,134,203,197,80,242,107,89,169,35,194,98,221,22,0,0,0,0,0,0,0,0,0,0,0,0,0,0,0,0,0,0,0,0,0,0,0,0,0,0,0,0,0,0,0,0,0,0,0,0,0,0,0,0,0,0,0,0,0,0
10.36,-363,-182,-1985,84,22,-11,5,5,104,0,4,3,38,191,194,181,216,100,225,24,179,235,0,0,0,0,104,20,4,29,102,8,113,133,227,192,75,238,103,83,154,10,181,46,183,247,0,0,0,0,0,0,0,0,0,0,0,0,0,0,0,0,0,0,0,0,0,0,0,0,0,0,0,0,0,0,0,0,0,0,0,0,0,0,0,0,0,0,0,0,0,0
10.37,-363,-182,-1985,84,22,-11,5,5,104,0,4,3,38,191,194,181,216,100,225,24,179,235,0,0,0,0,104,20,4,29,102,8,113,133,227,192,75,238,103,83,154,10,181,46,183,247,0,0,0,0,0,0,0,0,0,0,0,0,0,0,0,0,0,0,0,0,0,0,0,0,0,0,0,0,0,0,0,0,0,0,0,0,0,0,0,0,0,0,0,0,0,0
10.38,-363,-182,-1985,84,22,-11,5,5,104,0,4,3,38,191,194,181,216,100,225,24,179,235,0,0,0,0,104,20,4,29,102,8,113,133,227,192,75,238,103,83,154,10,181,46,183,247,0,0,0,0,0,0,0,0,0,0,0,0,0,0,0,0,0,0,0,0,0,0,0,0,0,0,0,0,0,0,0,0,0,0,0,0,0,0,0,0,0,0,0,0,0,0
10.39,-363,-182,-1985,84,22,-11,5,5,104,0,4,3,38,191,194,181,216,100,225,24,179,235,0,0,0,0,104,20,4,29,102,8,113,133,227,192,75,238,103,83,154,10,181,46,183,247,0,0,0,0,0,0,0,0,0,0,0,0,0,0,0,0,0,0,0,0,0,0,0,0,0,0,0,0,0,0,0,0,0,0,0,0,0,0,0,0,0,0,0,0,0,0
10.4,-332,-136,-1976,92,37,-11,17,6,110,0,5,5,43,224,227,204,243,104,236,47,177,2,0,0,0,0,106,18,5,30,101,9,113,132,239,191,65,229,93,76,135,241,160,14,132,207,0,0,0,0,0,0,0,0,0,0,0,0,0,0,0,0,0,0,0,0,0,0,0,0,0,0,0,0,0,0,0,0,0,0,0,0,0,0,0,0,0,0,0,0,0,0
10.41,-336,-148,-1970,103,46,-13,29,7,111,0,5,5,46,244,253,227,2,145,251,64,185,32,0,0,0,0,111,27,5,32,102,8,116,138,253,197,63,215,91,73,104,218,132,226,69,159,0,0,0,0,0,0,0,0,0,0,0,0,0,0,0,0,0,0,0,0,0,0,0,0,0,0,0,0,0,0,0,0,0,0,0,0,0,0,0,0,0,0,0,0,0,0
10.42,-355,-153,-1970,102,67,-18,53,11,121,0,8,8,51,40,118,47,115,231,137,131,234,124,0,0,0,0,152,49,8,40,88,12,143,143,3,187,27,170,27,39,31,95,10,31,136,29,0,0,0,0,0,0,0,0,0,0,0,0,0,0,0,0,0,0,0,0,0,0,0,0,0,0,0,0,0,0,0,0,0,0,0,0,0,0,0,0,0,0,0,0,0,0
10.43,-310,-154,-1972,97,63,-18,54,11,121,86,8,8,50,53,151,56,145,238,144,149,250,132,0,0,0,0,153,48,9,42,86,11,155,139,4,184,18,165,21,28,17,62,248,10,109,10,0,0,0,0,0,0,0,0,0,0,0,0,0,0,0,0,0,0,0,0,0,0,0,0,0,0,0,0,0,0,0,0,0,0,0,0,0,0,0,0,0,0,0,0,0,0
10.44,-310,-154,-1972,97,63,-18,54,11,121,86,8,8,50,53,151,56,145,238,144,149,250,132,0,0,0,0,153,48,9,42,86,11,155,139,4,184,18,165,21,28,17,62,248,10,109,10,0,0,0,0,0,0,0,0,0,0,0,0,0,0,0,0,0,0,0,0,0,0,0,0,0,0,0,0,0,0,0,0,0,0,0,0,0,0,0,0,0,0,0,0,0,0
10.45,-310,-154,-1972,97,63,-18,54,11,121,86,8,8,50,53,151,56,145,238,144,149,250,132,0,0,0,0,153,48,9,42,86,11,155,139,4,184,18,165,21,28,17,62,248,10,109,10,0,0,0,0,0,0,0,0,0,0,0,0,0,0,0,0,0,0,0,0,0,0,0,0,0,0,0,0,0,0,0,0,0,0,0,0,0,0,0,0,0,0,0,0,0,0
10.46,-310,-154,-1972,97,63,-18,54,11,121,86,8,8,50,53,151,56,145,238,144,149,250,132,0,0,0,0,153,48,9,42,86,11,155,139,4,184,18,165,21,28,17,62,248,10,109,10,0,0,0,0,0,0,0,0,0,0,0,0,0,0,0,0,0,0,0,0,0,0,0,0,0,0,0,0,0,0,0,0,0,0,0,0,0,0,0,0,0,0,0,0,0,0
10.47,-310,-154,-1972,97,63,-18,54,11,121,86,8,8,50,53,151,56,145,238,144,149,250,132,0,0,0,0,153,48,9,42,86,11,155,139,4,184,18,165,21,28,17,62,248,10,109,10,0,0,0,0,0,0,0,0,0,0,0,0,0,0,0,0,0,0,0,0,0,0,0,0,0,0,0,0,0,0,0,0,0,0,0,0,0,0,0,0,0,0,0,0,0,0
10.48,-288,-164,-1984,94,61,-17,58,29,124,0,10,11,52,111,175,65,162,237,155,158,253,139,0,0,0,0,173,55,10,45,81,14,160,135,8,176,9,156,15,18,253,34,237,218,91,231,0,0,0,0,0,0,0,0,0,0,0,0,0,0,0,0,0,0,0,0,0,0,0,0,0,0,0,0,0,0,0,0,0,0,0,0,0,0,0,0,0,0,0,0,0,0
10.49,-288,-164,-1984,94,61,-17,58,29,124,0,10,11,52,111,175,65,162,237,155,158,253,139,0,0,0,0,173,55,10,45,81,14,160,135,8,176,9,156,15,18,253,34,237,218,91,231,0,0,0,0,0,0,0,0,0,0,0,0,0,0,0,0,0,0,0,0,0,0,0,0,0,0,0,0,0,0,0,0,0,0,0,0,0,0,0,0,0,0,0,0,0,0
10.5,-288,-164,-1984,94,61,-17,58,29,124,0,10,11,52,111,175,65,162,237,155,158,253,139,0,0,0,0,173,55,10,45,81,14,160,135,8,176,9,156,15,18,253,34,237,218,91,231,0,0,0,0,0,0,0,0,0,0,0,0,0,0,0,0,0,0,0,0,0,0,0,0,0,0,0,0,0,0,0,0,0,0,0,0,0,0,0,0,0,0,0,0,0,0
10.51,-288,-164,-1984,94,61,-17,58,29,124,0,10,11,52,111,175,65,162,237,155,158,253,139,0,0,0,0,173,55,10,45,81,14,160,135,8,176,9,156,15,18,253,34,237,218,91,231,0,0,0,0,0,0,0,0,0,0,0,0,0,0,0,0,0,0,0,0,0,0,0,0,0,0,0,0,0,0,0,0,0,0,0,0,0,0,0,0,0,0,0,0,0,0
10.52,-288,-164,-1984,94,61,-17,58,29,124,0,10,11,52,111,175,65,162,237,155,158,253,139,0,0,0,0,173,55,10,45,81,14,160,135,8,176,9,156,15,18,253,34,237,218,91,231,0,0,0,0,0,0,0,0,0,0,0,0,0,0,0,0,0,0,0,0,0,0,0,0,0,0,0,0,0,0,0,0,0,0,0,0,0,0,0,0,0,0,0,0,0,0
10.53,-288,-164,-1984,94,61,-17,58,29,124,0,10,11,52,111,175,65,162,237,155,158,253,139,0,0,0,0,173,55,10,45,81,14,160,135,8,176,9,156,15,18,253,34,237,218,91,231,0,0,0,0,0,0,0,0,0,0,0,0,0,0,0,0,0,0,0,0,0,0,0,0,0,0,0,0,0,0,0,0,0,0,0,0,0,0,0,0,0,0,0,0,0,0
10.54,-288,-164,-1984,94,61,-17,58,29,124,0,10,11,52,111,175,65,162,237,155,158,253,139,0,0,0,0,173,55,10,45,81,14,160,135,8,176,9,156,15,18,253,34,237,218,91,231,0,0,0,0,0,0,0,0,0,0,0,0,0,0,0,0,0,0,0,0,0,0,0,0,0,0,0,0,0,0,0,0,0,0,0,0,0,0,0,0,0,0,0,0,0,0
10.55,-288,-164,-1984,94,61,-17,58,29,124,0,10,11,52,111,175,65,162,237,155,158,253,139,0,0,0,0,173,55,10,45,81,14,160,135,8,176,9,156,15,18,253,34,237,218,91,231,0,0,0,0,0,0,0,0,0,0,0,0,0,0,0,0,0,0,0,0,0,0,0,0,0,0,0,0,0,0,0,0,0,0,0,0,0,0,0,0,0,0,0,0,0,0
10.56,-288,-164,-1984,94,61,-17,58,29,124,0,10,11,52,111,175,65,162,237,155,158,253,139,0,0,0,0,173,55,10,45,81,14,160,135,8,176,9,156,15,18,253,34,237,218,91,231,0,0,0,0,0,0,0,0,0,0,0,0,0,0,0,0,0,0,0,0,0,0,0,0,0,0,0,0,0,0,0,0,0,0,0,0,0,0,0,0,0,0,0,0,0,0
10.57,-288,-164,-1984,94,61,-17,58,29,124,0,10,11,52,111,175,65,162,237,155,158,253,139,0,0,0,0,173,55,10,45,81,14,160,135,8,176,9,156,15,18,253,34,237,218,91,231,0,0,0,0,0,0,0,0,0,0,0,0,0,0,0,0,0,0,0,0,0,0,0,0,0,0,0,0,0,0,0,0,0,0,0,0,0,0,0,0,0,0,0,0,0,0
10.58,-288,-164,-1984,94,61,-17,58,29,124,0,10,11,52,111,175,65,162,237,155,158,253,139,0,0,0,0,173,55,10,45,81,14,160,135,8,176,9,156,15,18,253,34,237,218,91,231,0,0,0,0,0,0,0,0,0,0,0,0,0,0,0,0,0,0,0,0,0,0,0,0,0,0,0,0,0,0,0,0,0,0,0,0,0,0,0,0,0,0,0,0,0,0
10.59,-288,-164,-1984,94,61,-17,58,29,124,0,10,11,52,111,175,65,162,237,155,158,253,139,0,0,0,0,173,55,10,45,81,14,160,135,8,176,9,156,15,18,253,34,237,218,91,231,0,0,0,0,0,0,0,0,0,0,0,0,0,0,0,0,0,0,0,0,0,0,0,0,0,0,0,0,0,0,0,0,0,0,0,0,0,0,0,0,0,0,0,0,0,0
10.6,-288,-164,-1984,94,61,-17,58,29,124,0,10,11,52,111,175,65,162,237,155,158,253,139,0,0,0,0,173,55,10,45,81,14,160,135,8,176,9,156,15,18,253,34,237,218,91,231,0,0,0,0,0,0,0,0,0,0,0,0,0,0,0,0,0,0,0,0,0,0,0,0,0,0,0,0,0,0,0,0,0,0,0,0,0,0,0,0,0,0,0,0,0,0
10.61,-288,-164,-1984,94,61,-17,58,29,124,0,10,11,52,111,175,65,162,237,155,158,253,139,0,0,0,0,173,55,10,45,81,14,160,135,8,176,9,156,15,18,253,34,237,218,91,231,0,0,0,0,0,0,0,0,0,0,0,0,0,0,0,0,0,0,0,0,0,0,0,0,0,0,0,0,0,0,0,0,0,0,0,0,0,0,0,0,0,0,0,0,0,0
10.62,-288,-164,-1984,94,61,-17,58,29,124,0,10,11,52,111,175,65,162,237,155,158,253,139,0,0,0,0,173,55,10,45,81,14,160,135,8,176,9,156,15,18,253,34,237,218,91,231,0,0,0,0,0,0,0,0,0,0,0,0,0,0,0,0,0,0,0,0,0,0,0,0,0,0,0,0,0,0,0,0,0,0,0,0,0,0,0,0,0,0,0,0,0,0
10.63,-290,-149,-1999,95,56,-17,60,32,128,109,12,11,53,153,180,78,178,254,182,160,12,141,0,0,0,0,203,60,12,73,81,13,161,132,7,173,0,144,7,8,227,10,216,184,51,194,0,0,0,0,0,0,0,0,0,0,0,0,0,0,0,0,0,0,0,0,0,0,0,0,0,0,0,0,0,0,0,0,0,0,0,0,0,0,0,0,0,0,0,0,0,0
10.64,-255,-166,-2070,160,55,-17,90,52,136,0,16,35,60,218,9,184,40,79,94,41,130,243,0,0,0,0,8,67,14,101,103,14,163,123,10,143,206,86,227,196,123,129,53,36,119,179,0,0,0,0,0,0,0,0,0,0,0,0,0,0,0,0,0,0,0,0,0,0,0,0,0,0,0,0,0,0,0,0,0,0,0,0,0,0,0,0,0,0,0,0,0,0
10.65,-255,-166,-2070,160,55,-17,90,52,136,0,16,35,60,218,9,184,40,79,94,41,130,243,0,0,0,0,8,67,14,101,103,14,163,123,10,143,206,86,227,196,123,129,53,36,119,179,0,0,0,0,0,0,0,0,0,0,0,0,0,0,0,0,0,0,0,0,0,0,0,0,0,0,0,0,0,0,0,0,0,0,0,0,0,0,0,0,0,0,0,0,0,0
10.66,-255,-166,-2070,160,55,-17,90,52,136,0,16,35,60,218,9,184,40,79,94,41,130,243,0,0,0,0,8,67,14,101,103,14,163,123,10,143,206,86,227,196,123,129,53,36,119,179,0,0,0,0,0,0,0,0,0,0,0,0,0,0,0,0,0,0,0,0,0,0,0,0,0,0,0,0,0,0,0,0,0,0,0,0,0,0,0,0,0,0,0,0,0,0
10.67,-255,-166,-2070,160,55,-17,90,52,136,0,16,35,60,218,9,184,40,79,94,41,130,243,0,0,0,0,8,67,14,101,103,14,163,123,10,143,206,86,227,196,123,129,53,36,119,179,0,0,0,0,0,0,0,0,0,0,0,0,0,0,0,0,0,0,0,0,0,0,0,0,0,0,0,0,0,0,0,0,0,0,0,0,0,0,0,0,0,0,0,0,0,0
10.68,-255,-166,-2070,160,55,-17,90,52,136,0,16,35,60,218,9,184,40,79,94,41,130,243,0,0,0,0,8,67,14,101,103,14,163,123,10,143,206,86,227,196,123,129,53,36,119,179,0,0,0,0,0,0,0,0,0,0,0,0,0,0,0,0,0,0,0,0,0,0,0,0,0,0,0,0,0,0,0,0,0,0,0,0,0,0,0,0,0,0,0,0,0,0
10.69,-255,-166,-2070,160,55,-17,90,52,136,0,16,35,60,218,9,184,40,79,94,41,130,243,0,0,0,0,8,67,14,101,103,14,163,123,10,143,206,86,227,196,123,129,53,36,119,179,0,0,0,0,0,0,0,0,0,0,0,0,0,0,0,0,0,0,0,0,0,0,0,0,0,0,0,0,0,0,0,0,0,0,0,0,0,0,0,0,0,0,0,0,0,0
10.7,-269,-162,-2052,181,58,-19,110,62,143,224,17,39,63,227,53,224,64,97,122,63,165,252,0,0,0,0,18,67,15,103,106,13,163,114,253,123,188,69,212,173,96,100,20,242,64,133,0,0,0,0,0,0,0,0,0,0,0,0,0,0,0,0,0,0,0,0,0,0,0,0,0,0,0,0,0,0,0,0,0,0,0,0,0,0,0,0,0,0,0,0,0,0
10.71,-322,-131,-2025,199,71,-20,156,73,173,2,19,47,64,253,99,0,85,117,139,108,175,22,0,0,0,0,32,67,15,107,104,14,162,104,246,110,179,58,190,147,65,77,253,174,241,68,0,0,0,0,0,0,0,0,0,0,0,0,0,0,0,0,0,0,0,0,0,0,0,0,0,0,0,0,0,0,0,0,0,0,0,0,0,0,0,0,0,0,0,0,0,0
10.72,-266,-286,-2067,213,82,-18,175,80,202,0,22,51,80,19,158,52,108,142,178,149,189,47,0,0,0,0,39,65,17,110,97,15,164,100,235,91,160,46,172,117,33,41,224,120,155,246,0,0,0,0,0,0,0,0,0,0,0,0,0,0,0,0,0,0,0,0,0,0,0,0,0,0,0,0,0,0,0,0,0,0,0,0,0,0,0,0,0,0,0,0,0,0
10.73,-853,-132,-3472,4017,322,-994,22,199,235,212,151,43,31,116,53,107,218,175,235,98,158,209,0,0,0,0,0,0,0,0,0,0,0,0,0,0,0,0,0,0,0,0,0,0,0,0,0,0,0,0,0,0,0,0,0,0,0,0,0,0,0,0,0,0,0,0,0,0,0,0,0,0,0,0,0,0,0,0,0,0,0,0,0,0,0,0,0,0,0,0,0,0
10.74,-891,-121,-3392,4249,389,-1124,114,23,113,35,56,19,12,19,172,33,118,198,109,111,99,209,0,0,0,0,0,0,0,0,0,0,0,0,0,0,0,0,0,0,0,0,0,0,0,0,0,0,0,0,0,0,0,0,0,0,0,0,0,0,0,0,0,0,0,0,0,0,0,0,0,0,0,0,0,0,0,0,0,0,0,0,0,0,0,0,0,0,0,0,0,0
10.75,-891,-121,-3392,4249,389,-1124,114,23,113,35,56,19,12,19,172,33,118,198,109,111,99,209,0,0,0,0,0,0,0,0,0,0,0,0,0,0,0,0,0,0,0,0,0,0,0,0,0,0,0,0,0,0,0,0,0,0,0,0,0,0,0,0,0,0,0,0,0,0,0,0,0,0,0,0,0,0,0,0,0,0,0,0,0,0,0,0,0,0,0,0,0,0
10.76,-891,-121,-3392,4249,389,-1124,114,23,113,35,56,19,12,19,172,33,118,198,109,111,99,209,0,0,0,0,0,0,0,0,0,0,0,0,0,0,0,0,0,0,0,0,0,0,0,0,0,0,0,0,0,0,0,0,0,0,0,0,0,0,0,0,0,0,0,0,0,0,0,0,0,0,0,0,0,0,0,0,0,0,0,0,0,0,0,0,0,0,0,0,0,0
10.77,-891,-121,-3392,4249,389,-1124,114,23,113,35,56,19,12,19,172,33,118,198,109,111,99,209,0,0,0,0,0,0,0,0,0,0,0,0,0,0,0,0,0,0,0,0,0,0,0,0,0,0,0,0,0,0,0,0,0,0,0,0,0,0,0,0,0,0,0,0,0,0,0,0,0,0,0,0,0,0,0,0,0,0,0,0,0,0,0,0,0,0,0,0,0,0
10.78,-1431,71,-3687,4373,433,-1282,159,251,36,74,6,6,5,105,114,215,40,217,157,210,213,74,0,0,0,0,0,0,0,0,0,0,0,0,0,0,0,0,0,0,0,0,0,0,0,0,0,0,0,0,0,0,0,0,0,0,0,0,0,0,0,0,0,0,0,0,0,0,0,0,0,0,0,0,0,0,0,0,0,0,0,0,0,0,0,0,0,0,0,0,0,0
10.79,-900,952,-1745,4283,1391,-2100,6,1,0,0,5,2,0,8,5,4,0,0,4,0,0,2,5,2,2,0,1,0,0,7,1,0,5,1,5,1,0,2,0,2,1,4,0,0,4,0,0,0,0,0,0,0,0,0,0,0,0,0,0,0,0,0,0,0,0,0,0,0,0,0,0,0,0,0,0,0,0,0,0,0,0,0,0,0,0,0,0,0,0,0,0,0
10.8,-1434,2216,339,3959,1893,-2178,2,1,3,0,3,5,1,2,4,2,3,0,2,5,1,1,2,3,2,0,1,1,0,2,4,0,3,4,3,1,4,0,1,2,0,2,2,0,2,2,0,0,0,0,0,0,0,0,0,0,0,0,0,0,0,0,0,0,0,0,0,0,0,0,0,0,0,0,0,0,0,0,0,0,0,0,0,0,0,0,0,0,0,0,0,0
10.81,-1434,2216,339,3959,1893,-2178,2,1,3,0,3,5,1,2,4,2,3,0,2,5,1,1,2,3,2,0,1,1,0,2,4,0,3,4,3,1,4,0,1,2,0,2,2,0,2,2,0,0,0,0,0,0,0,0,0,0,0,0,0,0,0,0,0,0,0,0,0,0,0,0,0,0,0,0,0,0,0,0,0,0,0,0,0,0,0,0,0,0,0,0,0,0
10.82,-1434,2216,339,3959,1893,-2178,2,1,3,0,3,5,1,2,4,2,3,0,2,5,1,1,2,3,2,0,1,1,0,2,4,0,3,4,3,1,4,0,1,2,0,2,2,0,2,2,0,0,0,0,0,0,0,0,0,0,0,0,0,0,0,0,0,0,0,0,0,0,0,0,0,0,0,0,0,0,0,0,0,0,0,0,0,0,0,0,0,0,0,0,0,0
10.83,-1434,2216,339,3959,1893,-2178,2,1,3,0,3,5,1,2,4,2,3,0,2,5,1,1,2,3,2,0,1,1,0,2,4,0,3,4,3,1,4,0,1,2,0,2,2,0,2,2,0,0,0,0,0,0,0,0,0,0,0,0,0,0,0,0,0,0,0,0,0,0,0,0,0,0,0,0,0,0,0,0,0,0,0,0,0,0,0,0,0,0,0,0,0,0
10.84,-1434,2216,339,3959,1893,-2178,2,1,3,0,3,5,1,2,4,2,3,0,2,5,1,1,2,3,2,0,1,1,0,2,4,0,3,4,3,1,4,0,1,2,0,2,2,0,2,2,0,0,0,0,0,0,0,0,0,0,0,0,0,0,0,0,0,0,0,0,0,0,0,0,0,0,0,0,0,0,0,0,0,0,0,0,0,0,0,0,0,0,0,0,0,0
10.85,-1434,2216,339,3959,1893,-2178,2,1,3,0,3,5,1,2,4,2,3,0,2,5,1,1,2,3,2,0,1,1,0,2,4,0,3,4,3,1,4,0,1,2,0,2,2,0,2,2,0,0,0,0,0,0,0,0,0,0,0,0,0,0,0,0,0,0,0,0,0,0,0,0,0,0,0,0,0,0,0,0,0,0,0,0,0,0,0,0,0,0,0,0,0,0
10.86,-1434,2216,339,3959,1893,-2178,2,1,3,0,3,5,1,2,4,2,3,0,2,5,1,1,2,3,2,0,1,1,0,2,4,0,3,4,3,1,4,0,1,2,0,2,2,0,2,2,0,0,0,0,0,0,0,0,0,0,0,0,0,0,0,0,0,0,0,0,0,0,0,0,0,0,0,0,0,0,0,0,0,0,0,0,0,0,0,0,0,0,0,0,0,0
10.87,-1434,2216,339,3959,1893,-2178,2,1,3,0,3,5,1,2,4,2,3,0,2,5,1,1,2,3,2,0,1,1,0,2,4,0,3,4,3,1,4,0,1,2,0,2,2,0,2,2,0,0,0,0,0,0,0,0,0,0,0,0,0,0,0,0,0,0,0,0,0,0,0,0,0,0,0,0,0,0,0,0,0,0,0,0,0,0,0,0,0,0,0,0,0,0
10.88,-1434,2216,339,3959,1893,-2178,2,1,3,0,3,5,1,2,4,2,3,0,2,5,1,1,2,3,2,0,1,1,0,2,4,0,3,4,3,1,4,0,1,2,0,2,2,0,2,2,0,0,0,0,0,0,0,0,0,0,0,0,0,0,0,0,0,0,0,0,0,0,0,0,0,0,0,0,0,0,0,0,0,0,0,0,0,0,0,0,0,0,0,0,0,0
10.89,-1434,2216,339,3959,1893,-2178,2,1,3,0,3,5,1,2,4,2,3,0,2,5,1,1,2,3,2,0,1,1,0,2,4,0,3,4,3,1,4,0,1,2,0,2,2,0,2,2,0,0,0,0,0,0,0,0,0,0,0,0,0,0,0,0,0,0,0,0,0,0,0,0,0,0,0,0,0,0,0,0,0,0,0,0,0,0,0,0,0,0,0,0,0,0
10.9,-1434,2216,339,3959,1893,-2178,2,1,3,0,3,5,1,2,4,2,3,0,2,5,1,1,2,3,2,0,1,1,0,2,4,0,3,4,3,1,4,0,1,2,0,2,2,0,2,2,0,0,0,0,0,0,0,0,0,0,0,0,0,0,0,0,0,0,0,0,0,0,0,0,0,0,0,0,0,0,0,0,0,0,0,0,0,0,0,0,0,0,0,0,0,0
10.91,-1434,2216,339,3959,1893,-2178,2,1,3,0,3,5,1,2,4,2,3,0,2,5,1,1,2,3,2,0,1,1,0,2,4,0,3,4,3,1,4,0,1,2,0,2,2,0,2,2,0,0,0,0,0,0,0,0,0,0,0,0,0,0,0,0,0,0,0,0,0,0,0,0,0,0,0,0,0,0,0,0,0,0,0,0,0,0,0,0,0,0,0,0,0,0
10.92,-1434,2216,339,3959,1893,-2178,2,1,3,0,3,5,1,2,4,2,3,0,2,5,1,1,2,3,2,0,1,1,0,2,4,0,3,4,3,1,4,0,1,2,0,2,2,0,2,2,0,0,0,0,0,0,0,0,0,0,0,0,0,0,0,0,0,0,0,0,0,0,0,0,0,0,0,0,0,0,0,0,0,0,0,0,0,0,0,0,0,0,0,0,0,0
10.93,-1702,1382,-2228,3241,1867,-2357,0,3,2,0,2,2,3,11,1,3,3,14,0,2,2,15,0,2,2,0,4,3,16,0,3,5,1,1,1,0,4,5,2,4,2,1,4,3,0,3,0,0,0,0,0,0,0,0,0,0,0,0,0,0,0,0,0,0,0,0,0,0,0,0,0,0,0,0,0,0,0,0,0,0,0,0,0,0,0,0,0,0,0,0,0,0
10.94,-1106,1985,-1230,2160,1095,-2528,2,2,2,0,1,1,2,12,2,1,2,15,0,0,2,0,0,3,2,0,3,3,0,1,3,0,0,3,0,4,2,5,3,4,0,0,3,0,2,0,0,0,0,0,0,0,0,0,0,0,0,0,0,0,0,0,0,0,0,0,0,0,0,0,0,0,0,0,0,0,0,0,0,0,0,0,0,0,0,0,0,0,0,0,0,0
10.95,-345,794,-1143,-723,144,-1327,2,2,2,0,2,1,2,0,0,2,1,0,2,1,2,0,1,0,2,0,2,2,1,1,1,0,1,3,1,3,2,1,2,3,0,0,2,0,1,2,0,0,0,0,0,0,0,0,0,0,0,0,0,0,0,0,0,0,0,0,0,0,0,0,0,0,0,0,0,0,0,0,0,0,0,0,0,0,0,0,0,0,0,0,0,0
10.96,-402,817,-1132,-810,-144,-904,2,2,2,0,2,1,2,11,1,1,2,15,2,0,2,15,2,2,3,0,2,3,16,2,1,6,2,1,0,3,2,6,0,2,2,1,3,3,1,2,0,0,0,0,0,0,0,0,0,0,0,0,0,0,0,0,0,0,0,0,0,0,0,0,0,0,0,0,0,0,0,0,0,0,0,0,0,0,0,0,0,0,0,0,0,0
10.97,-327,745,-1155,-915,-532,-478,0,2,2,0,0,1,2,10,2,1,2,15,1,1,0,0,1,2,2,0,0,4,1,2,2,0,1,2,2,4,2,7,0,4,0,2,1,0,2,0,0,0,0,0,0,0,0,0,0,0,0,0,0,0,0,0,0,0,0,0,0,0,0,0,0,0,0,0,0,0,0,0,0,0,0,0,0,0,0,0,0,0,0,0,0,0
10.98,-327,745,-1155,-915,-532,-478,0,2,2,0,0,1,2,10,2,1,2,15,1,1,0,0,1,2,2,0,0,4,1,2,2,0,1,2,2,4,2,7,0,4,0,2,1,0,2,0,0,0,0,0,0,0,0,0,0,0,0,0,0,0,0,0,0,0,0,0,0,0,0,0,0,0,0,0,0,0,0,0,0,0,0,0,0,0,0,0,0,0,0,0,0,0
10.99,-327,745,-1155,-915,-532,-478,0,2,2,0,0,1,2,10,2,1,2,15,1,1,0,0,1,2,2,0,0,4,1,2,2,0,1,2,2,4,2,7,0,4,0,2,1,0,2,0,0,0,0,0,0,0,0,0,0,0,0,0,0,0,0,0,0,0,0,0,0,0,0,0,0,0,0,0,0,0,0,0,0,0,0,0,0,0,0,0,0,0,0,0,0,0
11,-327,745,-1155,-915,-532,-478,0,2,2,0,0,1,2,10,2,1,2,15,1,1,0,0,1,2,2,0,0,4,1,2,2,0,1,2,2,4,2,7,0,4,0,2,1,0,2,0,0,0,0,0,0,0,0,0,0,0,0,0,0,0,0,0,0,0,0,0,0,0,0,0,0,0,0,0,0,0,0,0,0,0,0,0,0,0,0,0,0,0,0,0,0,0
11.01,-327,745,-1155,-915,-532,-478,0,2,2,0,0,1,2,10,2,1,2,15,1,1,0,0,1,2,2,0,0,4,1,2,2,0,1,2,2,4,2,7,0,4,0,2,1,0,2,0,0,0,0,0,0,0,0,0,0,0,0,0,0,0,0,0,0,0,0,0,0,0,0,0,0,0,0,0,0,0,0,0,0,0,0,0,0,0,0,0,0,0,0,0,0,0
11.02,-327,745,-1155,-915,-532,-478,0,2,2,0,0,1,2,10,2,1,2,15,1,1,0,0,1,2,2,0,0,4,1,2,2,0,1,2,2,4,2,7,0,4,0,2,1,0,2,0,0,0,0,0,0,0,0,0,0,0,0,0,0,0,0,0,0,0,0,0,0,0,0,0,0,0,0,0,0,0,0,0,0,0,0,0,0,0,0,0,0,0,0,0,0,0
11.03,-327,745,-1155,-915,-532,-478,0,2,2,0,0,1,2,10,2,1,2,15,1,1,0,0,1,2,2,0,0,4,1,2,2,0,1,2,2,4,2,7,0,4,0,2,1,0,2,0,0,0,0,0,0,0,0,0,0,0,0,0,0,0,0,0,0,0,0,0,0,0,0,0,0,0,0,0,0,0,0,0,0,0,0,0,0,0,0,0,0,0,0,0,0,0
11.04,-327,745,-1155,-915,-532,-478,0,2,2,0,0,1,2,10,2,1,2,15,1,1,0,0,1,2,2,0,0,4,1,2,2,0,1,2,2,4,2,7,0,4,0,2,1,0,2,0,0,0,0,0,0,0,0,0,0,0,0,0,0,0,0,0,0,0,0,0,0,0,0,0,0,0,0,0,0,0,0,0,0,0,0,0,0,0,0,0,0,0,0,0,0,0
11.05,-327,745,-1155,-915,-532,-478,0,2,2,0,0,1,2,10,2,1,2,15,1,1,0,0,1,2,2,0,0,4,1,2,2,0,1,2,2,4,2,7,0,4,0,2,1,0,2,0,0,0,0,0,0,0,0,0,0,0,0,0,0,0,0,0,0,0,0,0,0,0,0,0,0,0,0,0,0,0,0,0,0,0,0,0,0,0,0,0,0,0,0,0,0,0
11.06,-327,745,-1155,-915,-532,-478,0,2,2,0,0,1,2,10,2,1,2,15,1,1,0,0,1,2,2,0,0,4,1,2,2,0,1,2,2,4,2,7,0,4,0,2,1,0,2,0,0,0,0,0,0,0,0,0,0,0,0,0,0,0,0,0,0,0,0,0,0,0,0,0,0,0,0,0,0,0,0,0,0,0,0,0,0,0,0,0,0,0,0,0,0,0
11.07,-327,745,-1155,-915,-532,-478,0,2,2,0,0,1,2,10,2,1,2,15,1,1,0,0,1,2,2,0,0,4,1,2,2,0,1,2,2,4,2,7,0,4,0,2,1,0,2,0,0,0,0,0,0,0,0,0,0,0,0,0,0,0,0,0,0,0,0,0,0,0,0,0,0,0,0,0,0,0,0,0,0,0,0,0,0,0,0,0,0,0,0,0,0,0
11.08,-173,686,-1141,-1032,-869,-67,0,2,1,0,2,1,3,12,4,2,1,16,3,0,3,0,0,3,1,0,4,3,1,2,2,1,2,3,2,0,3,0,0,2,0,2,2,0,1,2,0,0,0,0,0,0,0,0,0,0,0,0,0,0,0,0,0,0,0,0,0,0,0,0,0,0,0,0,0,0,0,0,0,0,0,0,0,0,0,0,0,0,0,0,0,0
11.09,84,-7,-2452,-2998,-1342,771,4,2,2,0,2,3,3,0,4,1,2,0,4,2,3,0,0,0,1,0,1,2,1,3,0,0,2,7,0,2,1,2,0,1,0,0,2,0,1,0,0,0,0,0,0,0,0,0,0,0,0,0,0,0,0,0,0,0,0,0,0,0,0,0,0,0,0,0,0,0,0,0,0,0,0,0,0,0,0,0,0,0,0,0,0,0
11.1,22,-49,-2569,-3107,-1263,783,1,3,3,0,1,3,2,10,0,3,2,13,2,2,5,0,2,0,1,0,2,0,2,2,1,0,0,2,1,0,1,2,2,0,0,1,3,0,0,3,0,0,0,0,0,0,0,0,0,0,0,0,0,0,0,0,0,0,0,0,0,0,0,0,0,0,0,0,0,0,0,0,0,0,0,0,0,0,0,0,0,0,0,0,0,0
11.11,-29,-71,-2662,-3197,-1218,854,0,1,1,0,0,4,2,8,0,1,0,14,2,0,0,11,4,0,0,0,0,5,16,5,0,7,4,1,1,1,0,5,3,0,3,1,1,1,3,0,0,0,0,0,0,0,0,0,0,0,0,0,0,0,0,0,0,0,0,0,0,0,0,0,0,0,0,0,0,0,0,0,0,0,0,0,0,0,0,0,0,0,0,0,0,0
11.12,-29,-71,-2662,-3197,-1218,854,0,1,1,0,0,4,2,8,0,1,0,14,2,0,0,11,4,0,0,0,0,5,16,5,0,7,4,1,1,1,0,5,3,0,3,1,1,1,3,0,0,0,0,0,0,0,0,0,0,0,0,0,0,0,0,0,0,0,0,0,0,0,0,0,0,0,0,0,0,0,0,0,0,0,0,0,0,0,0,0,0,0,0,0,0,0
11.13,-29,-71,-2662,-3197,-1218,854,0,1,1,0,0,4,2,8,0,1,0,14,2,0,0,11,4,0,0,0,0,5,16,5,0,7,4,1,1,1,0,5,3,0,3,1,1,1,3,0,0,0,0,0,0,0,0,0,0,0,0,0,0,0,0,0,0,0,0,0,0,0,0,0,0,0,0,0,0,0,0,0,0,0,0,0,0,0,0,0,0,0,0,0,0,0
11.14,-29,-71,-2662,-3197,-1218,854,0,1,1,0,0,4,2,8,0,1,0,14,2,0,0,11,4,0,0,0,0,5,16,5,0,7,4,1,1,1,0,5,3,0,3,1,1,1,3,0,0,0,0,0,0,0,0,0,0,0,0,0,0,0,0,0,0,0,0,0,0,0,0,0,0,0,0,0,0,0,0,0,0,0,0,0,0,0,0,0,0,0,0,0,0,0
11.15,-53,-114,-2765,-3268,-1217,974,4,3,1,0,3,2,2,10,3,2,2,0,1,4,2,0,2,2,3,0,3,3,0,3,4,0,2,4,2,0,2,0,2,2,0,1,2,0,0,1,0,0,0,0,0,0,0,0,0,0,0,0,0,0,0,0,0,0,0,0,0,0,0,0,0,0,0,0,0,0,0,0,0,0,0,0,0,0,0,0,0,0,0,0,0,0
11.16,1118,-3585,-3279,-3288,-1396,1940,1,0,0,0,3,1,2,0,0,0,0,1,0,3,0,5,0,8,0,0,2,0,0,4,1,0,6,8,4,3,0,1,5,2,0,4,3,0,4,0,0,0,0,0,0,0,0,0,0,0,0,0,0,0,0,0,0,0,0,0,0,0,0,0,0,0,0,0,0,0,0,0,0,0,0,0,0,0,0,0,0,0,0,0,0,0
11.17,1118,-3585,-3279,-3288,-1396,1940,1,0,0,0,3,1,2,0,0,0,0,1,0,3,0,5,0,8,0,0,2,0,0,4,1,0,6,8,4,3,0,1,5,2,0,4,3,0,4,0,0,0,0,0,0,0,0,0,0,0,0,0,0,0,0,0,0,0,0,0,0,0,0,0,0,0,0,0,0,0,0,0,0,0,0,0,0,0,0,0,0,0,0,0,0,0
11.18,1118,-3585,-3279,-3288,-1396,1940,1,0,0,0,3,1,2,0,0,0,0,1,0,3,0,5,0,8,0,0,2,0,0,4,1,0,6,8,4,3,0,1,5,2,0,4,3,0,4,0,0,0,0,0,0,0,0,0,0,0,0,0,0,0,0,0,0,0,0,0,0,0,0,0,0,0,0,0,0,0,0,0,0,0,0,0,0,0,0,0,0,0,0,0,0,0
11.19,1118,-3585,-3279,-3288,-1396,1940,1,0,0,0,3,1,2,0,0,0,0,1,0,3,0,5,0,8,0,0,2,0,0,4,1,0,6,8,4,3,0,1,5,2,0,4,3,0,4,0,0,0,0,0,0,0,0,0,0,0,0,0,0,0,0,0,0,0,0,0,0,0,0,0,0,0,0,0,0,0,0,0,0,0,0,0,0,0,0,0,0,0,0,0,0,0
11.2,1118,-3585,-3279,-3288,-1396,1940,1,0,0,0,3,1,2,0,0,0,0,1,0,3,0,5,0,8,0,0,2,0,0,4,1,0,6,8,4,3,0,1,5,2,0,4,3,0,4,0,0,0,0,0,0,0,0,0,0,0,0,0,0,0,0,0,0,0,0,0,0,0,0,0,0,0,0,0,0,0,0,0,0,0,0,0,0,0,0,0,0,0,0,0,0,0
11.21,1118,-3585,-3279,-3288,-1396,1940,1,0,0,0,3,1,2,0,0,0,0,1,0,3,0,5,0,8,0,0,2,0,0,4,1,0,6,8,4,3,0,1,5,2,0,4,3,0,4,0,0,0,0,0,0,0,0,0,0,0,0,0,0,0,0,0,0,0,0,0,0,0,0,0,0,0,0,0,0,0,0,0,0,0,0,0,0,0,0,0,0,0,0,0,0,0
11.22,1118,-3585,-3279,-3288,-1396,1940,1,0,0,0,3,1,2,0,0,0,0,1,0,3,0,5,0,8,0,0,2,0,0,4,1,0,6,8,4,3,0,1,5,2,0,4,3,0,4,0,0,0,0,0,0,0,0,0,0,0,0,0,0,0,0,0,0,0,0,0,0,0,0,0,0,0,0,0,0,0,0,0,0,0,0,0,0,0,0,0,0,0,0,0,0,0
11.23,1341,-4016,-2942,-3030,-1018,1801,8,0,2,0,2,0,1,10,8,0,1,14,1,0,1,14,3,0,6,0,8,4,17,4,0,8,3,0,1,4,2,5,0,5,0,1,4,2,3,0,0,0,0,0,0,0,0,0,0,0,0,0,0,0,0,0,0,0,0,0,0,0,0,0,0,0,0,0,0,0,0,0,0,0,0,0,0,0,0,0,0,0,0,0,0,0
11.24,966,-5064,-3604,-2668,-283,1691,6,0,4,0,10,0,2,11,7,0,4,18,0,0,2,0,0,8,0,0,6,2,2,4,2,0,1,4,0,3,0,3,1,0,0,0,1,1,8,0,0,0,0,0,0,0,0,0,0,0,0,0,0,0,0,0,0,0,0,0,0,0,0,0,0,0,0,0,0,0,0,0,0,0,0,0,0,0,0,0,0,0,0,0,0,0
11.25,617,-5122,-2206,-2209,587,1548,7,0,5,0,5,0,2,13,5,0,5,18,0,2,1,0,3,6,4,0,0,3,0,6,4,0,4,0,3,4,4,6,0,2,0,2,1,0,1,2,0,0,0,0,0,0,0,0,0,0,0,0,0,0,0,0,0,0,0,0,0,0,0,0,0,0,0,0,0,0,0,0,0,0,0,0,0,0,0,0,0,0,0,0,0,0
11.26,-414,-5622,-2287,-1691,1268,1325,2,4,3,0,3,1,2,11,3,1,2,14,2,2,2,14,2,3,4,0,3,2,17,2,2,7,3,2,1,3,2,4,0,3,2,2,2,4,3,3,0,0,0,0,0,0,0,0,0,0,0,0,0,0,0,0,0,0,0,0,0,0,0,0,0,0,0,0,0,0,0,0,0,0,0,0,0,0,0,0,0,0,0,0,0,0
11.27,-414,-5622,-2287,-1691,1268,1325,2,4,3,0,3,1,2,11,3,1,2,14,2,2,2,14,2,3,4,0,3,2,17,2,2,7,3,2,1,3,2,4,0,3,2,2,2,4,3,3,0,0,0,0,0,0,0,0,0,0,0,0,0,0,0,0,0,0,0,0,0,0,0,0,0,0,0,0,0,0,0,0,0,0,0,0,0,0,0,0,0,0,0,0,0,0
11.28,-414,-5622,-2287,-1691,1268,1325,2,4,3,0,3,1,2,11,3,1,2,14,2,2,2,14,2,3,4,0,3,2,17,2,2,7,3,2,1,3,2,4,0,3,2,2,2,4,3,3,0,0,0,0,0,0,0,0,0,0,0,0,0,0,0,0,0,0,0,0,0,0,0,0,0,0,0,0,0,0,0,0,0,0,0,0,0,0,0,0,0,0,0,0,0,0
11.29,-414,-5622,-2287,-1691,1268,1325,2,4,3,0,3,1,2,11,3,1,2,14,2,2,2,14,2,3,4,0,3,2,17,2,2,7,3,2,1,3,2,4,0,3,2,2,2,4,3,3,0,0,0,0,0,0,0,0,0,0,0,0,0,0,0,0,0,0,0,0,0,0,0,0,0,0,0,0,0,0,0,0,0,0,0,0,0,0,0,0,0,0,0,0,0,0
11.3,-62,-7017,-1770,765,821,298,2,2,1,0,4,3,0,11,1,4,5,0,4,1,2,0,1,7,4,0,0,2,4,0,7,1,1,0,6,4,2,2,0,4,2,2,1,0,4,3,0,0,0,0,0,0,0,0,0,0,0,0,0,0,0,0,0,0,0,0,0,0,0,0,0,0,0,0,0,0,0,0,0,0,0,0,0,0,0,0,0,0,0,0,0,0
11.31,-455,426,-935,1709,465,118,0,2,2,0,0,2,2,0,0,1,2,0,0,0,2,0,0,0,1,0,0,2,0,0,0,0,0,0,0,0,2,0,3,2,125,0,6,254,137,159,0,0,0,0,0,0,0,0,0,0,0,0,0,0,0,0,0,0,0,0,0,0,0,0,0,0,0,0,0,0,0,0,0,0,0,0,0,0,0,0,0,0,0,0,0,0
11.32,-470,-781,-2386,2592,-258,-148,0,0,0,0,0,0,0,0,0,0,0,0,2,156,245,1,0,0,0,0,2,104,0,1,122,0,2,173,7,134,201,119,165,103,236,203,149,89,244,32,0,0,0,0,0,0,0,0,0,0,0,0,0,0,0,0,0,0,0,0,0,0,0,0,0,0,0,0,0,0,0,0,0,0,0,0,0,0,0,0,0,0,0,0,0,0
11.33,-590,-614,-2442,1914,-248,-29,0,0,0,0,0,0,0,0,1,72,0,0,31,245,61,4,0,0,0,0,3,207,1,3,149,2,4,6,11,154,247,225,33,209,232,20,62,245,150,207,0,0,0,0,0,0,0,0,0,0,0,0,0,0,0,0,0,0,0,0,0,0,0,0,0,0,0,0,0,0,0,0,0,0,0,0,0,0,0,0,0,0,0,0,0,0
11.34,-590,-614,-2442,1914,-248,-29,0,0,0,0,0,0,0,0,1,72,0,0,31,245,61,4,0,0,0,0,3,207,1,3,149,2,4,6,11,154,247,225,33,209,232,20,62,245,150,207,0,0,0,0,0,0,0,0,0,0,0,0,0,0,0,0,0,0,0,0,0,0,0,0,0,0,0,0,0,0,0,0,0,0,0,0,0,0,0,0,0,0,0,0,0,0
11.35,-590,-614,-2442,1914,-248,-29,0,0,0,0,0,0,0,0,1,72,0,0,31,245,61,4,0,0,0,0,3,207,1,3,149,2,4,6,11,154,247,225,33,209,232,20,62,245,150,207,0,0,0,0,0,0,0,0,0,0,0,0,0,0,0,0,0,0,0,0,0,0,0,0,0,0,0,0,0,0,0,0,0,0,0,0,0,0,0,0,0,0,0,0,0,0
11.36,-590,-614,-2442,1914,-248,-29,0,0,0,0,0,0,0,0,1,72,0,0,31,245,61,4,0,0,0,0,3,207,1,3,149,2,4,6,11,154,247,225,33,209,232,20,62,245,150,207,0,0,0,0,0,0,0,0,0,0,0,0,0,0,0,0,0,0,0,0,0,0,0,0,0,0,0,0,0,0,0,0,0,0,0,0,0,0,0,0,0,0,0,0,0,0
11.37,-590,-614,-2442,1914,-248,-29,0,0,0,0,0,0,0,0,1,72,0,0,31,245,61,4,0,0,0,0,3,207,1,3,149,2,4,6,11,154,247,225,33,209,232,20,62,245,150,207,0,0,0,0,0,0,0,0,0,0,0,0,0,0,0,0,0,0,0,0,0,0,0,0,0,0,0,0,0,0,0,0,0,0,0,0,0,0,0,0,0,0,0,0,0,0
11.38,-662,-123,-2476,1258,-116,1,0,0,0,0,0,0,0,0,0,89,2,0,49,7,62,6,0,0,0,0,11,221,1,4,149,3,4,21,14,6,6,13,59,93,203,240,192,231,152,13,0,0,0,0,0,0,0,0,0,0,0,0,0,0,0,0,0,0,0,0,0,0,0,0,0,0,0,0,0,0,0,0,0,0,0,0,0,0,0,0,0,0,0,0,0,0
11.39,-393,-11,-2278,792,25,9,0,0,0,0,0,0,0,0,1,155,3,0,65,45,107,8,0,0,0,0,12,228,2,4,152,3,4,17,17,102,253,87,24,71,174,245,169,184,127,106,0,0,0,0,0,0,0,0,0,0,0,0,0,0,0,0,0,0,0,0,0,0,0,0,0,0,0,0,0,0,0,0,0,0,0,0,0,0,0,0,0,0,0,0,0,0
11.4,-516,-231,-1937,95,-27,5,0,0,0,0,0,0,0,0,5,119,74,3,171,190,2,13,0,0,0,0,16,210,2,4,170,4,6,95,18,128,208,162,198,251,136,195,65,141,66,232,0,0,0,0,0,0,0,0,0,0,0,0,0,0,0,0,0,0,0,0,0,0,0,0,0,0,0,0,0,0,0,0,0,0,0,0,0,0,0,0,0,0,0,0,0,0
11.41,-515,-147,-1923,47,-14,2,0,0,0,0,0,0,0,0,7,155,77,43,184,224,47,14,0,0,0,0,16,201,1,4,196,4,6,103,19,133,200,212,183,235,91,192,34,76,55,174,0,0,0,0,0,0,0,0,0,0,0,0,0,0,0,0,0,0,0,0,0,0,0,0,0,0,0,0,0,0,0,0,0,0,0,0,0,0,0,0,0,0,0,0,0,0
11.42,-464,-160,-1955,20,13,-2,0,0,0,0,0,0,0,0,7,156,93,50,229,244,43,47,0,0,0,0,16,203,2,4,198,5,7,102,20,137,202,216,181,220,80,167,32,64,30,151,0,0,0,0,0,0,0,0,0,0,0,0,0,0,0,0,0,0,0,0,0,0,0,0,0,0,0,0,0,0,0,0,0,0,0,0,0,0,0,0,0,0,0,0,0,0
11.43,-464,-160,-1955,20,13,-2,0,0,0,0,0,0,0,0,7,156,93,50,229,244,43,47,0,0,0,0,16,203,2,4,198,5,7,102,20,137,202,216,181,220,80,167,32,64,30,151,0,0,0,0,0,0,0,0,0,0,0,0,0,0,0,0,0,0,0,0,0,0,0,0,0,0,0,0,0,0,0,0,0,0,0,0,0,0,0,0,0,0,0,0,0,0
11.44,-464,-160,-1955,20,13,-2,0,0,0,0,0,0,0,0,7,156,93,50,229,244,43,47,0,0,0,0,16,203,2,4,198,5,7,102,20,137,202,216,181,220,80,167,32,64,30,151,0,0,0,0,0,0,0,0,0,0,0,0,0,0,0,0,0,0,0,0,0,0,0,0,0,0,0,0,0,0,0,0,0,0,0,0,0,0,0,0,0,0,0,0,0,0
11.45,-464,-160,-1955,20,13,-2,0,0,0,0,0,0,0,0,7,156,93,50,229,244,43,47,0,0,0,0,16,203,2,4,198,5,7,102,20,137,202,216,181,220,80,167,32,64,30,151,0,0,0,0,0,0,0,0,0,0,0,0,0,0,0,0,0,0,0,0,0,0,0,0,0,0,0,0,0,0,0,0,0,0,0,0,0,0,0,0,0,0,0,0,0,0
11.46,-464,-160,-1955,20,13,-2,0,0,0,0,0,0,0,0,7,156,93,50,229,244,43,47,0,0,0,0,16,203,2,4,198,5,7,102,20,137,202,216,181,220,80,167,32,64,30,151,0,0,0,0,0,0,0,0,0,0,0,0,0,0,0,0,0,0,0,0,0,0,0,0,0,0,0,0,0,0,0,0,0,0,0,0,0,0,0,0,0,0,0,0,0,0
11.47,-464,-160,-1955,20,13,-2,0,0,0,0,0,0,0,0,7,156,93,50,229,244,43,47,0,0,0,0,16,203,2,4,198,5,7,102,20,137,202,216,181,220,80,167,32,64,30,151,0,0,0,0,0,0,0,0,0,0,0,0,0,0,0,0,0,0,0,0,0,0,0,0,0,0,0,0,0,0,0,0,0,0,0,0,0,0,0,0,0,0,0,0,0,0
11.48,-464,-160,-1955,20,13,-2,0,0,0,0,0,0,0,0,7,156,93,50,229,244,43,47,0,0,0,0,16,203,2,4,198,5,7,102,20,137,202,216,181,220,80,167,32,64,30,151,0,0,0,0,0,0,0,0,0,0,0,0,0,0,0,0,0,0,0,0,0,0,0,0,0,0,0,0,0,0,0,0,0,0,0,0,0,0,0,0,0,0,0,0,0,0
11.49,-464,-160,-1955,20,13,-2,0,0,0,0,0,0,0,0,7,156,93,50,229,244,43,47,0,0,0,0,16,203,2,4,198,5,7,102,20,137,202,216,181,220,80,167,32,64,30,151,0,0,0,0,0,0,0,0,0,0,0,0,0,0,0,0,0,0,0,0,0,0,0,0,0,0,0,0,0,0,0,0,0,0,0,0,0,0,0,0,0,0,0,0,0,0
11.5,-464,-160,-1955,20,13,-2,0,0,0,0,0,0,0,0,7,156,93,50,229,244,43,47,0,0,0,0,16,203,2,4,198,5,7,102,20,137,202,216,181,220,80,167,32,64,30,151,0,0,0,0,0,0,0,0,0,0,0,0,0,0,0,0,0,0,0,0,0,0,0,0,0,0,0,0,0,0,0,0,0,0,0,0,0,0,0,0,0,0,0,0,0,0
11.51,-464,-160,-1955,20,13,-2,0,0,0,0,0,0,0,0,7,156,93,50,229,244,43,47,0,0,0,0,16,203,2,4,198,5,7,102,20,137,202,216,181,220,80,167,32,64,30,151,0,0,0,0,0,0,0,0,0,0,0,0,0,0,0,0,0,0,0,0,0,0,0,0,0,0,0,0,0,0,0,0,0,0,0,0,0,0,0,0,0,0,0,0,0,0
11.52,-464,-160,-1955,20,13,-2,0,0,0,0,0,0,0,0,7,156,93,50,229,244,43,47,0,0,0,0,16,203,2,4,198,5,7,102,20,137,202,216,181,220,80,167,32,64,30,151,0,0,0,0,0,0,0,0,0,0,0,0,0,0,0,0,0,0,0,0,0,0,0,0,0,0,0,0,0,0,0,0,0,0,0,0,0,0,0,0,0,0,0,0,0,0
11.53,-348,-223,-1984,-3,33,-3,0,0,0,0,0,0,0,0,8,161,93,70,5,0,31,57,0,0,0,0,19,199,2,3,207,5,7,111,20,139,206,226,174,216,61,156,36,40,11,131,0,0,0,0,0,0,0,0,0,0,0,0,0,0,0,0,0,0,0,0,0,0,0,0,0,0,0,0,0,0,0,0,0,0,0,0,0,0,0,0,0,0,0,0,0,0
11.54,-395,-71,-1996,-33,-10,18,0,0,0,0,0,0,0,0,82,179,107,151,109,8,18,100,0,0,0,0,19,186,2,12,59,6,17,133,96,200,151,42,187,228,24,85,244,140,71,14,0,0,0,0,0,0,0,0,0,0,0,0,0,0,0,0,0,0,0,0,0,0,0,0,0,0,0,0,0,0,0,0,0,0,0,0,0,0,0,0,0,0,0,0,0,0
11.55,-460,-43,-1990,-11,-5,13,0,0,0,0,0,0,0,0,108,182,109,168,118,18,27,102,0,0,0,0,20,201,3,13,64,8,60,144,98,206,146,41,192,228,18,54,226,125,26,236,0,0,0,0,0,0,0,0,0,0,0,0,0,0,0,0,0,0,0,0,0,0,0,0,0,0,0,0,0,0,0,0,0,0,0,0,0,0,0,0,0,0,0,0,0,0
11.56,-406,-88,-2016,16,16,7,0,0,0,0,0,0,0,0,117,205,111,221,137,18,29,152,0,0,0,0,21,202,3,13,75,7,68,151,101,214,136,28,187,237,235,47,207,73,241,203,0,0,0,0,0,0,0,0,0,0,0,0,0,0,0,0,0,0,0,0,0,0,0,0,0,0,0,0,0,0,0,0,0,0,0,0,0,0,0,0,0,0,0,0,0,0
11.57,-406,-88,-2016,16,16,7,0,0,0,0,0,0,0,0,117,205,111,221,137,18,29,152,0,0,0,0,21,202,3,13,75,7,68,151,101,214,136,28,187,237,235,47,207,73,241,203,0,0,0,0,0,0,0,0,0,0,0,0,0,0,0,0,0,0,0,0,0,0,0,0,0,0,0,0,0,0,0,0,0,0,0,0,0,0,0,0,0,0,0,0,0,0
11.58,-406,-88,-2016,16,16,7,0,0,0,0,0,0,0,0,117,205,111,221,137,18,29,152,0,0,0,0,21,202,3,13,75,7,68,151,101,214,136,28,187,237,235,47,207,73,241,203,0,0,0,0,0,0,0,0,0,0,0,0,0,0,0,0,0,0,0,0,0,0,0,0,0,0,0,0,0,0,0,0,0,0,0,0,0,0,0,0,0,0,0,0,0,0
11.59,-406,-88,-2016,16,16,7,0,0,0,0,0,0,0,0,117,205,111,221,137,18,29,152,0,0,0,0,21,202,3,13,75,7,68,151,101,214,136,28,187,237,235,47,207,73,241,203,0,0,0,0,0,0,0,0,0,0,0,0,0,0,0,0,0,0,0,0,0,0,0,0,0,0,0,0,0,0,0,0,0,0,0,0,0,0,0,0,0,0,0,0,0,0
11.6,-410,-114,-2019,33,36,2,0,0,0,0,0,0,0,0,128,217,113,37,194,22,46,188,0,0,0,0,20,215,3,14,74,8,80,152,115,216,126,14,185,237,198,12,186,14,188,182,0,0,0,0,0,0,0,0,0,0,0,0,0,0,0,0,0,0,0,0,0,0,0,0,0,0,0,0,0,0,0,0,0,0,0,0,0,0,0,0,0,0,0,0,0,0
11.61,-247,-207,-2002,84,38,-20,11,6,96,0,4,5,43,221,233,202,245,83,234,248,153,191,0,0,0,0,93,35,5,27,92,8,109,123,197,199,67,226,95,77,169,11,182,75,160,23,0,0,0,0,0,0,0,0,0,0,0,0,0,0,0,0,0,0,0,0,0,0,0,0,0,0,0,0,0,0,0,0,0,0,0,0,0,0,0,0,0,0,0,0,0,0
11.62,-314,-89,-1993,85,26,-19,10,6,99,0,5,5,43,232,249,207,2,99,247,8,159,212,0,0,0,0,95,40,5,30,94,8,111,125,199,197,65,222,91,69,153,254,168,47,138,2,0,0,0,0,0,0,0,0,0,0,0,0,0,0,0,0,0,0,0,0,0,0,0,0,0,0,0,0,0,0,0,0,0,0,0,0,0,0,0,0,0,0,0,0,0,0
11.63,-313,-145,-2008,91,18,-17,21,6,106,0,5,5,46,246,15,221,8,111,5,22,157,222,0,0,0,0,99,59,5,32,92,9,113,128,201,199,54,215,87,61,148,237,154,25,99,225,0,0,0,0,0,0,0,0,0,0,0,0,0,0,0,0,0,0,0,0,0,0,0,0,0,0,0,0,0,0,0,0,0,0,0,0,0,0,0,0,0,0,0,0,0,0
11.64,-313,-145,-2008,91,18,-17,21,6,106,0,5,5,46,246,15,221,8,111,5,22,157,222,0,0,0,0,99,59,5,32,92,9,113,128,201,199,54,215,87,61,148,237,154,25,99,225,0,0,0,0,0,0,0,0,0,0,0,0,0,0,0,0,0,0,0,0,0,0,0,0,0,0,0,0,0,0,0,0,0,0,0,0,0,0,0,0,0,0,0,0,0,0
11.65,-313,-145,-2008,91,18,-17,21,6,106,0,5,5,46,246,15,221,8,111,5,22,157,222,0,0,0,0,99,59,5,32,92,9,113,128,201,199,54,215,87,61,148,237,154,25,99,225,0,0,0,0,0,0,0,0,0,0,0,0,0,0,0,0,0,0,0,0,0,0,0,0,0,0,0,0,0,0,0,0,0,0,0,0,0,0,0,0,0,0,0,0,0,0
11.66,-313,-145,-2008,91,18,-17,21,6,106,0,5,5,46,246,15,221,8,111,5,22,157,222,0,0,0,0,99,59,5,32,92,9,113,128,201,199,54,215,87,61,148,237,154,25,99,225,0,0,0,0,0,0,0,0,0,0,0,0,0,0,0,0,0,0,0,0,0,0,0,0,0,0,0,0,0,0,0,0,0,0,0,0,0,0,0,0,0,0,0,0,0,0
11.67,-313,-145,-2008,91,18,-17,21,6,106,0,5,5,46,246,15,221,8,111,5,22,157,222,0,0,0,0,99,59,5,32,92,9,113,128,201,199,54,215,87,61,148,237,154,25,99,225,0,0,0,0,0,0,0,0,0,0,0,0,0,0,0,0,0,0,0,0,0,0,0,0,0,0,0,0,0,0,0,0,0,0,0,0,0,0,0,0,0,0,0,0,0,0
11.68,-313,-145,-2008,91,18,-17,21,6,106,0,5,5,46,246,15,221,8,111,5,22,157,222,0,0,0,0,99,59,5,32,92,9,113,128,201,199,54,215,87,61,148,237,154,25,99,225,0,0,0,0,0,0,0,0,0,0,0,0,0,0,0,0,0,0,0,0,0,0,0,0,0,0,0,0,0,0,0,0,0,0,0,0,0,0,0,0,0,0,0,0,0,0
11.69,-313,-145,-2008,91,18,-17,21,6,106,0,5,5,46,246,15,221,8,111,5,22,157,222,0,0,0,0,99,59,5,32,92,9,113,128,201,199,54,215,87,61,148,237,154,25,99,225,0,0,0,0,0,0,0,0,0,0,0,0,0,0,0,0,0,0,0,0,0,0,0,0,0,0,0,0,0,0,0,0,0,0,0,0,0,0,0,0,0,0,0,0,0,0
11.7,-313,-145,-2008,91,18,-17,21,6,106,0,5,5,46,246,15,221,8,111,5,22,157,222,0,0,0,0,99,59,5,32,92,9,113,128,201,199,54,215,87,61,148,237,154,25,99,225,0,0,0,0,0,0,0,0,0,0,0,0,0,0,0,0,0,0,0,0,0,0,0,0,0,0,0,0,0,0,0,0,0,0,0,0,0,0,0,0,0,0,0,0,0,0
11.71,-313,-145,-2008,91,18,-17,21,6,106,0,5,5,46,246,15,221,8,111,5,22,157,222,0,0,0,0,99,59,5,32,92,9,113,128,201,199,54,215,87,61,148,237,154,25,99,225,0,0,0,0,0,0,0,0,0,0,0,0,0,0,0,0,0,0,0,0,0,0,0,0,0,0,0,0,0,0,0,0,0,0,0,0,0,0,0,0,0,0,0,0,0,0
11.72,-313,-145,-2008,91,18,-17,21,6,106,0,5,5,46,246,15,221,8,111,5,22,157,222,0,0,0,0,99,59,5,32,92,9,113,128,201,199,54,215,87,61,148,237,154,25,99,225,0,0,0,0,0,0,0,0,0,0,0,0,0,0,0,0,0,0,0,0,0,0,0,0,0,0,0,0,0,0,0,0,0,0,0,0,0,0,0,0,0,0,0,0,0,0
11.73,-313,-145,-2008,91,18,-17,21,6,106,0,5,5,46,246,15,221,8,111,5,22,157,222,0,0,0,0,99,59,5,32,92,9,113,128,201,199,54,215,87,61,148,237,154,25,99,225,0,0,0,0,0,0,0,0,0,0,0,0,0,0,0,0,0,0,0,0,0,0,0,0,0,0,0,0,0,0,0,0,0,0,0,0,0,0,0,0,0,0,0,0,0,0
11.74,-313,-145,-2008,91,18,-17,21,6,106,0,5,5,46,246,15,221,8,111,5,22,157,222,0,0,0,0,99,59,5,32,92,9,113,128,201,199,54,215,87,61,148,237,154,25,99,225,0,0,0,0,0,0,0,0,0,0,0,0,0,0,0,0,0,0,0,0,0,0,0,0,0,0,0,0,0,0,0,0,0,0,0,0,0,0,0,0,0,0,0,0,0,0
11.75,-369,-136,-1991,101,9,-14,32,7,108,0,6,5,47,6,23,239,14,129,39,43,175,230,0,0,0,0,100,58,5,34,94,9,115,131,202,199,48,215,65,52,141,213,139,246,69,201,0,0,0,0,0,0,0,0,0,0,0,0,0,0,0,0,0,0,0,0,0,0,0,0,0,0,0,0,0,0,0,0,0,0,0,0,0,0,0,0,0,0,0,0,0,0
11.76,-329,-159,-1945,106,33,-15,45,10,114,0,7,7,51,47,90,51,143,238,175,124,217,60,0,0,0,0,110,58,6,38,107,10,123,146,212,192,14,187,42,13,67,93,17,55,198,53,0,0,0,0,0,0,0,0,0,0,0,0,0,0,0,0,0,0,0,0,0,0,0,0,0,0,0,0,0,0,0,0,0,0,0,0,0,0,0,0,0,0,0,0,0,0
11.77,-324,-215,-1970,103,40,-17,51,11,119,55,7,7,52,52,139,64,160,1,175,129,218,72,0,0,0,0,114,60,5,40,109,9,123,147,224,192,8,184,35,5,51,61,5,33,171,42,0,0,0,0,0,0,0,0,0,0,0,0,0,0,0,0,0,0,0,0,0,0,0,0,0,0,0,0,0,0,0,0,0,0,0,0,0,0,0,0,0,0,0,0,0,0
11.78,-324,-215,-1970,103,40,-17,51,11,119,55,7,7,52,52,139,64,160,1,175,129,218,72,0,0,0,0,114,60,5,40,109,9,123,147,224,192,8,184,35,5,51,61,5,33,171,42,0,0,0,0,0,0,0,0,0,0,0,0,0,0,0,0,0,0,0,0,0,0,0,0,0,0,0,0,0,0,0,0,0,0,0,0,0,0,0,0,0,0,0,0,0,0
11.79,-324,-215,-1970,103,40,-17,51,11,119,55,7,7,52,52,139,64,160,1,175,129,218,72,0,0,0,0,114,60,5,40,109,9,123,147,224,192,8,184,35,5,51,61,5,33,171,42,0,0,0,0,0,0,0,0,0,0,0,0,0,0,0,0,0,0,0,0,0,0,0,0,0,0,0,0,0,0,0,0,0,0,0,0,0,0,0,0,0,0,0,0,0,0
11.8,-324,-215,-1970,103,40,-17,51,11,119,55,7,7,52,52,139,64,160,1,175,129,218,72,0,0,0,0,114,60,5,40,109,9,123,147,224,192,8,184,35,5,51,61,5,33,171,42,0,0,0,0,0,0,0,0,0,0,0,0,0,0,0,0,0,0,0,0,0,0,0,0,0,0,0,0,0,0,0,0,0,0,0,0,0,0,0,0,0,0,0,0,0,0
11.81,-324,-215,-1970,103,40,-17,51,11,119,55,7,7,52,52,139,64,160,1,175,129,218,72,0,0,0,0,114,60,5,40,109,9,123,147,224,192,8,184,35,5,51,61,5,33,171,42,0,0,0,0,0,0,0,0,0,0,0,0,0,0,0,0,0,0,0,0,0,0,0,0,0,0,0,0,0,0,0,0,0,0,0,0,0,0,0,0,0,0,0,0,0,0
11.82,-324,-215,-1970,103,40,-17,51,11,119,55,7,7,52,52,139,64,160,1,175,129,218,72,0,0,0,0,114,60,5,40,109,9,123,147,224,192,8,184,35,5,51,61,5,33,171,42,0,0,0,0,0,0,0,0,0,0,0,0,0,0,0,0,0,0,0,0,0,0,0,0,0,0,0,0,0,0,0,0,0,0,0,0,0,0,0,0,0,0,0,0,0,0
11.83,-289,-181,-1986,102,44,-18,52,12,119,77,8,7,52,61,151,67,175,4,190,139,223,91,0,0,0,0,115,59,6,41,114,10,124,151,234,193,4,179,29,0,29,47,247,11,143,27,0,0,0,0,0,0,0,0,0,0,0,0,0,0,0,0,0,0,0,0,0,0,0,0,0,0,0,0,0,0,0,0,0,0,0,0,0,0,0,0,0,0,0,0,0,0
11.84,-288,-115,-1980,103,46,-16,53,11,122,0,9,8,53,86,175,83,188,13,199,152,230,113,0,0,0,0,117,60,8,42,114,10,125,152,246,192,2,172,16,247,13,22,236,231,117,7,0,0,0,0,0,0,0,0,0,0,0,0,0,0,0,0,0,0,0,0,0,0,0,0,0,0,0,0,0,0,0,0,0,0,0,0,0,0,0,0,0,0,0,0,0,0
11.85,-264,-137,-2018,107,51,-14,55,12,124,83,10,24,55,95,204,100,206,23,1,181,23,148,0,0,0,0,139,53,7,43,108,10,124,144,249,177,244,161,254,230,247,223,215,212,88,227,0,0,0,0,0,0,0,0,0,0,0,0,0,0,0,0,0,0,0,0,0,0,0,0,0,0,0,0,0,0,0,0,0,0,0,0,0,0,0,0,0,0,0,0,0,0
11.86,-264,-137,-2018,107,51,-14,55,12,124,83,10,24,55,95,204,100,206,23,1,181,23,148,0,0,0,0,139,53,7,43,108,10,124,144,249,177,244,161,254,230,247,223,215,212,88,227,0,0,0,0,0,0,0,0,0,0,0,0,0,0,0,0,0,0,0,0,0,0,0,0,0,0,0,0,0,0,0,0,0,0,0,0,0,0,0,0,0,0,0,0,0,0
11.87,-264,-137,-2018,107,51,-14,55,12,124,83,10,24,55,95,204,100,206,23,1,181,23,148,0,0,0,0,139,53,7,43,108,10,124,144,249,177,244,161,254,230,247,223,215,212,88,227,0,0,0,0,0,0,0,0,0,0,0,0,0,0,0,0,0,0,0,0,0,0,0,0,0,0,0,0,0,0,0,0,0,0,0,0,0,0,0,0,0,0,0,0,0,0
11.88,-264,-137,-2018,107,51,-14,55,12,124,83,10,24,55,95,204,100,206,23,1,181,23,148,0,0,0,0,139,53,7,43,108,10,124,144,249,177,244,161,254,230,247,223,215,212,88,227,0,0,0,0,0,0,0,0,0,0,0,0,0,0,0,0,0,0,0,0,0,0,0,0,0,0,0,0,0,0,0,0,0,0,0,0,0,0,0,0,0,0,0,0,0,0
11.89,-264,-137,-2018,107,51,-14,55,12,124,83,10,24,55,95,204,100,206,23,1,181,23,148,0,0,0,0,139,53,7,43,108,10,124,144,249,177,244,161,254,230,247,223,215,212,88,227,0,0,0,0,0,0,0,0,0,0,0,0,0,0,0,0,0,0,0,0,0,0,0,0,0,0,0,0,0,0,0,0,0,0,0,0,0,0,0,0,0,0,0,0,0,0
11.9,-264,-137,-2018,107,51,-14,55,12,124,83,10,24,55,95,204,100,206,23,1,181,23,148,0,0,0,0,139,53,7,43,108,10,124,144,249,177,244,161,254,230,247,223,215,212,88,227,0,0,0,0,0,0,0,0,0,0,0,0,0,0,0,0,0,0,0,0,0,0,0,0,0,0,0,0,0,0,0,0,0,0,0,0,0,0,0,0,0,0,0,0,0,0
11.91,-264,-137,-2018,107,51,-14,55,12,124,83,10,24,55,95,204,100,206,23,1,181,23,148,0,0,0,0,139,53,7,43,108,10,124,144,249,177,244,161,254,230,247,223,215,212,88,227,0,0,0,0,0,0,0,0,0,0,0,0,0,0,0,0,0,0,0,0,0,0,0,0,0,0,0,0,0,0,0,0,0,0,0,0,0,0,0,0,0,0,0,0,0,0
11.92,-264,-137,-2018,107,51,-14,55,12,124,83,10,24,55,95,204,100,206,23,1,181,23,148,0,0,0,0,139,53,7,43,108,10,124,144,249,177,244,161,254,230,247,223,215,212,88,227,0,0,0,0,0,0,0,0,0,0,0,0,0,0,0,0,0,0,0,0,0,0,0,0,0,0,0,0,0,0,0,0,0,0,0,0,0,0,0,0,0,0,0,0,0,0
11.93,-264,-137,-2018,107,51,-14,55,12,124,83,10,24,55,95,204,100,206,23,1,181,23,148,0,0,0,0,139,53,7,43,108,10,124,144,249,177,244,161,254,230,247,223,215,212,88,227,0,0,0,0,0,0,0,0,0,0,0,0,0,0,0,0,0,0,0,0,0,0,0,0,0,0,0,0,0,0,0,0,0,0,0,0,0,0,0,0,0,0,0,0,0,0
11.94,-264,-137,-2018,107,51,-14,55,12,124,83,10,24,55,95,204,100,206,23,1,181,23,148,0,0,0,0,139,53,7,43,108,10,124,144,249,177,244,161,254,230,247,223,215,212,88,227,0,0,0,0,0,0,0,0,0,0,0,0,0,0,0,0,0,0,0,0,0,0,0,0,0,0,0,0,0,0,0,0,0,0,0,0,0,0,0,0,0,0,0,0,0,0
11.95,-264,-137,-2018,107,51,-14,55,12,124,83,10,24,55,95,204,100,206,23,1,181,23,148,0,0,0,0,139,53,7,43,108,10,124,144,249,177,244,161,254,230,247,223,215,212,88,227,0,0,0,0,0,0,0,0,0,0,0,0,0,0,0,0,0,0,0,0,0,0,0,0,0,0,0,0,0,0,0,0,0,0,0,0,0,0,0,0,0,0,0,0,0,0
11.96,-264,-137,-2018,107,51,-14,55,12,124,83,10,24,55,95,204,100,206,23,1,181,23,148,0,0,0,0,139,53,7,43,108,10,124,144,249,177,244,161,254,230,247,223,215,212,88,227,0,0,0,0,0,0,0,0,0,0,0,0,0,0,0,0,0,0,0,0,0,0,0,0,0,0,0,0,0,0,0,0,0,0,0,0,0,0,0,0,0,0,0,0,0,0
11.97,-264,-137,-2018,107,51,-14,55,12,124,83,10,24,55,95,204,100,206,23,1,181,23,148,0,0,0,0,139,53,7,43,108,10,124,144,249,177,244,161,254,230,247,223,215,212,88,227,0,0,0,0,0,0,0,0,0,0,0,0,0,0,0,0,0,0,0,0,0,0,0,0,0,0,0,0,0,0,0,0,0,0,0,0,0,0,0,0,0,0,0,0,0,0
11.98,-290,-167,-1951,73,75,-16,143,68,176,253,21,55,92,35,138,23,106,161,157,100,161,17,0,0,0,0,248,38,14,96,94,13,159,99,230,103,171,72,174,141,38,52,2,127,250,119,0,0,0,0,0,0,0,0,0,0,0,0,0,0,0,0,0,0,0,0,0,0,0,0,0,0,0,0,0,0,0,0,0,0,0,0,0,0,0,0,0,0,0,0,0,0
11.99,-296,-191,-1998,70,77,-16,157,72,196,12,33,61,92,40,157,35,113,169,161,108,165,34,0,0,0,0,2,43,14,99,94,14,159,100,231,100,166,63,165,132,25,29,252,97,224,95,0,0,0,0,0,0,0,0,0,0,0,0,0,0,0,0,0,0,0,0,0,0,0,0,0,0,0,0,0,0,0,0,0,0,0,0,0,0,0,0,0,0,0,0,0,0
12,-258,-224,-2013,70,70,-17,164,76,196,25,43,64,96,45,167,49,124,176,177,122,172,49,0,0,0,0,6,50,15,102,91,14,160,100,230,96,159,55,157,124,11,22,243,76,183,66,0,0,0,0,0,0,0,0,0,0,0,0,0,0,0,0,0,0,0,0,0,0,0,0,0,0,0,0,0,0,0,0,0,0,0,0,0,0,0,0,0,0,0,0,0,0
12.01,-287,-206,-2030,184,134,-32,250,133,14,0,100,119,128,213,70,142,242,244,91,15,51,197,0,0,0,0,94,85,25,117,98,19,156,71,179,7,71,221,64,201,87,130,93,84,145,86,0,0,0,0,0,0,0,0,0,0,0,0,0,0,0,0,0,0,0,0,0,0,0,0,0,0,0,0,0,0,0,0,0,0,0,0,0,0,0,0,0,0,0,0,0,0
12.02,-232,-194,-2063,209,139,-38,10,157,38,152,105,125,134,7,101,169,14,9,148,59,81,219,0,0,0,0,110,90,25,123,91,19,151,67,168,242,57,171,252,189,69,97,36,42,80,59,0,0,0,0,0,0,0,0,0,0,0,0,0,0,0,0,0,0,0,0,0,0,0,0,0,0,0,0,0,0,0,0,0,0,0,0,0,0,0,0,0,0,0,0,0,0
12.03,-232,-194,-2063,209,139,-38,10,157,38,152,105,125,134,7,101,169,14,9,148,59,81,219,0,0,0,0,110,90,25,123,91,19,151,67,168,242,57,171,252,189,69,97,36,42,80,59,0,0,0,0,0,0,0,0,0,0,0,0,0,0,0,0,0,0,0,0,0,0,0,0,0,0,0,0,0,0,0,0,0,0,0,0,0,0,0,0,0,0,0,0,0,0
12.04,-232,-194,-2063,209,139,-38,10,157,38,152,105,125,134,7,101,169,14,9,148,59,81,219,0,0,0,0,110,90,25,123,91,19,151,67,168,242,57,171,252,189,69,97,36,42,80,59,0,0,0,0,0,0,0,0,0,0,0,0,0,0,0,0,0,0,0,0,0,0,0,0,0,0,0,0,0,0,0,0,0,0,0,0,0,0,0,0,0,0,0,0,0,0
12.05,-294,-238,-2093,234,145,-42,34,168,52,0,124,138,147,42,170,215,59,24,211,109,130,247,0,0,0,0,128,96,28,129,53,19,143,49,153,210,0,137,192,157,46,18,29,239,251,31,0,0,0,0,0,0,0,0,0,0,0,0,0,0,0,0,0,0,0,0,0,0,0,0,0,0,0,0,0,0,0,0,0,0,0,0,0,0,0,0,0,0,0,0,0,0
12.06,-257,-38,-3281,1843,83,-270,14,73,103,229,66,27,212,46,206,89,131,183,166,210,118,243,0,0,0,0,65,134,2,13,0,0,0,0,0,0,0,0,0,0,0,0,0,0,0,0,0,0,0,0,0,0,0,0,0,0,0,0,0,0,0,0,0,0,0,0,0,0,0,0,0,0,0,0,0,0,0,0,0,0,0,0,0,0,0,0,0,0,0,0,0,0
12.07,-390,-947,-3527,2154,28,-308,11,80,138,250,40,3,187,61,223,108,58,182,180,215,191,212,0,0,0,0,62,134,1,11,0,0,0,0,0,0,0,0,0,0,0,0,0,0,0,0,0,0,0,0,0,0,0,0,0,0,0,0,0,0,0,0,0,0,0,0,0,0,0,0,0,0,0,0,0,0,0,0,0,0,0,0,0,0,0,0,0,0,0,0,0,0
12.08,-759,158,-3415,2513,32,-371,25,69,155,20,39,11,132,66,206,167,203,152,187,178,47,212,0,0,0,0,47,155,1,11,0,0,0,0,0,0,0,0,0,0,0,0,0,0,1,0,0,0,0,0,0,0,0,0,0,0,0,0,0,0,0,0,0,0,0,0,0,0,0,0,0,0,0,0,0,0,0,0,0,0,0,0,0,0,0,0,0,0,0,0,0,0
12.09,-759,158,-3415,2513,32,-371,25,69,155,20,39,11,132,66,206,167,203,152,187,178,47,212,0,0,0,0,47,155,1,11,0,0,0,0,0,0,0,0,0,0,0,0,0,0,1,0,0,0,0,0,0,0,0,0,0,0,0,0,0,0,0,0,0,0,0,0,0,0,0,0,0,0,0,0,0,0,0,0,0,0,0,0,0,0,0,0,0,0,0,0,0,0
12.1,-759,158,-3415,2513,32,-371,25,69,155,20,39,11,132,66,206,167,203,152,187,178,47,212,0,0,0,0,47,155,1,11,0,0,0,0,0,0,0,0,0,0,0,0,0,0,1,0,0,0,0,0,0,0,0,0,0,0,0,0,0,0,0,0,0,0,0,0,0,0,0,0,0,0,0,0,0,0,0,0,0,0,0,0,0,0,0,0,0,0,0,0,0,0
12.11,-759,158,-3415,2513,32,-371,25,69,155,20,39,11,132,66,206,167,203,152,187,178,47,212,0,0,0,0,47,155,1,11,0,0,0,0,0,0,0,0,0,0,0,0,0,0,1,0,0,0,0,0,0,0,0,0,0,0,0,0,0,0,0,0,0,0,0,0,0,0,0,0,0,0,0,0,0,0,0,0,0,0,0,0,0,0,0,0,0,0,0,0,0,0
12.12,-759,158,-3415,2513,32,-371,25,69,155,20,39,11,132,66,206,167,203,152,187,178,47,212,0,0,0,0,47,155,1,11,0,0,0,0,0,0,0,0,0,0,0,0,0,0,1,0,0,0,0,0,0,0,0,0,0,0,0,0,0,0,0,0,0,0,0,0,0,0,0,0,0,0,0,0,0,0,0,0,0,0,0,0,0,0,0,0,0,0,0,0,0,0
12.13,-863,-22,-3296,2841,15,-450,43,82,207,0,15,206,70,42,219,216,96,164,179,178,143,209,0,0,0,0,37,167,0,10,0,0,0,0,0,0,0,0,0,0,0,0,0,0,0,0,0,0,0,0,0,0,0,0,0,0,0,0,0,0,0,0,0,0,0,0,0,0,0,0,0,0,0,0,0,0,0,0,0,0,0,0,0,0,0,0,0,0,0,0,0,0
12.14,-1399,-33,-3531,4297,477,-1265,30,211,124,0,56,16,11,182,189,25,147,9,175,183,65,223,0,0,0,0,0,0,0,0,0,0,0,0,0,0,0,0,0,0,0,0,0,0,0,0,0,0,0,0,0,0,0,0,0,0,0,0,0,0,0,0,0,0,0,0,0,0,0,0,0,0,0,0,0,0,0,0,0,0,0,0,0,0,0,0,0,0,0,0,0,0
12.15,-1399,-33,-3531,4297,477,-1265,30,211,124,0,56,16,11,182,189,25,147,9,175,183,65,223,0,0,0,0,0,0,0,0,0,0,0,0,0,0,0,0,0,0,0,0,0,0,0,0,0,0,0,0,0,0,0,0,0,0,0,0,0,0,0,0,0,0,0,0,0,0,0,0,0,0,0,0,0,0,0,0,0,0,0,0,0,0,0,0,0,0,0,0,0,0
12.16,-1399,-33,-3531,4297,477,-1265,30,211,124,0,56,16,11,182,189,25,147,9,175,183,65,223,0,0,0,0,0,0,0,0,0,0,0,0,0,0,0,0,0,0,0,0,0,0,0,0,0,0,0,0,0,0,0,0,0,0,0,0,0,0,0,0,0,0,0,0,0,0,0,0,0,0,0,0,0,0,0,0,0,0,0,0,0,0,0,0,0,0,0,0,0,0
12.17,-1399,-33,-3531,4297,477,-1265,30,211,124,0,56,16,11,182,189,25,147,9,175,183,65,223,0,0,0,0,0,0,0,0,0,0,0,0,0,0,0,0,0,0,0,0,0,0,0,0,0,0,0,0,0,0,0,0,0,0,0,0,0,0,0,0,0,0,0,0,0,0,0,0,0,0,0,0,0,0,0,0,0,0,0,0,0,0,0,0,0,0,0,0,0,0
12.18,-1399,-33,-3531,4297,477,-1265,30,211,124,0,56,16,11,182,189,25,147,9,175,183,65,223,0,0,0,0,0,0,0,0,0,0,0,0,0,0,0,0,0,0,0,0,0,0,0,0,0,0,0,0,0,0,0,0,0,0,0,0,0,0,0,0,0,0,0,0,0,0,0,0,0,0,0,0,0,0,0,0,0,0,0,0,0,0,0,0,0,0,0,0,0,0
12.19,-1399,-33,-3531,4297,477,-1265,30,211,124,0,56,16,11,182,189,25,147,9,175,183,65,223,0,0,0,0,0,0,0,0,0,0,0,0,0,0,0,0,0,0,0,0,0,0,0,0,0,0,0,0,0,0,0,0,0,0,0,0,0,0,0,0,0,0,0,0,0,0,0,0,0,0,0,0,0,0,0,0,0,0,0,0,0,0,0,0,0,0,0,0,0,0
12.2,-1075,-840,-4203,4356,405,-1472,138,210,166,27,6,6,5,79,112,9,43,7,168,197,75,84,0,0,0,0,0,0,0,0,0,0,0,0,0,0,0,0,0,0,0,0,0,0,0,0,0,0,0,0,0,0,0,0,0,0,0,0,0,0,0,0,0,0,0,0,0,0,0,0,0,0,0,0,0,0,0,0,0,0,0,0,0,0,0,0,0,0,0,0,0,0
12.21,-1205,-642,-3510,4420,351,-1648,73,76,33,149,2,2,1,231,246,181,25,32,81,146,135,0,0,0,0,0,0,0,0,0,0,0,0,0,0,0,0,0,0,0,0,0,0,0,0,0,0,0,0,0,0,0,0,0,0,0,0,0,0,0,0,0,0,0,0,0,0,0,0,0,0,0,0,0,0,0,0,0,0,0,0,0,0,0,0,0,0,0,0,0,0,0
12.22,-1286,-260,-3802,4520,427,-1808,14,108,2,0,0,1,0,0,202,111,5,187,41,243,145,58,0,0,0,0,0,0,0,1,0,0,0,0,2,0,0,0,0,0,0,0,0,0,0,0,0,0,0,0,0,0,0,0,0,0,0,0,0,0,0,0,0,0,0,0,0,0,0,0,0,0,0,0,0,0,0,0,0,0,0,0,0,0,0,0,0,0,0,0,0,0
12.23,-1284,80,-2652,4580,717,-1969,0,0,1,0,0,0,2,0,139,164,2,21,30,96,4,2,0,1,1,0,1,1,0,0,2,0,0,0,2,0,2,0,1,2,0,0,1,0,0,1,0,0,0,0,0,0,0,0,0,0,0,0,0,0,0,0,0,0,0,0,0,0,0,0,0,0,0,0,0,0,0,0,0,0,0,0,0,0,0,0,0,0,0,0,0,0
12.24,-1284,80,-2652,4580,717,-1969,0,0,1,0,0,0,2,0,139,164,2,21,30,96,4,2,0,1,1,0,1,1,0,0,2,0,0,0,2,0,2,0,1,2,0,0,1,0,0,1,0,0,0,0,0,0,0,0,0,0,0,0,0,0,0,0,0,0,0,0,0,0,0,0,0,0,0,0,0,0,0,0,0,0,0,0,0,0,0,0,0,0,0,0,0,0
12.25,-1284,80,-2652,4580,717,-1969,0,0,1,0,0,0,2,0,139,164,2,21,30,96,4,2,0,1,1,0,1,1,0,0,2,0,0,0,2,0,2,0,1,2,0,0,1,0,0,1,0,0,0,0,0,0,0,0,0,0,0,0,0,0,0,0,0,0,0,0,0,0,0,0,0,0,0,0,0,0,0,0,0,0,0,0,0,0,0,0,0,0,0,0,0,0
12.26,-1284,80,-2652,4580,717,-1969,0,0,1,0,0,0,2,0,139,164,2,21,30,96,4,2,0,1,1,0,1,1,0,0,2,0,0,0,2,0,2,0,1,2,0,0,1,0,0,1,0,0,0,0,0,0,0,0,0,0,0,0,0,0,0,0,0,0,0,0,0,0,0,0,0,0,0,0,0,0,0,0,0,0,0,0,0,0,0,0,0,0,0,0,0,0
12.27,-1284,80,-2652,4580,717,-1969,0,0,1,0,0,0,2,0,139,164,2,21,30,96,4,2,0,1,1,0,1,1,0,0,2,0,0,0,2,0,2,0,1,2,0,0,1,0,0,1,0,0,0,0,0,0,0,0,0,0,0,0,0,0,0,0,0,0,0,0,0,0,0,0,0,0,0,0,0,0,0,0,0,0,0,0,0,0,0,0,0,0,0,0,0,0
12.28,-1722,1714,-1002,2414,1551,-2741,2,0,3,0,0,2,0,0,0,5,2,1,1,0,4,0,0,0,0,0,3,1,2,0,2,2,0,5,0,4,2,1,4,3,0,0,4,0,0,3,0,0,0,0,0,0,0,0,0,0,0,0,0,0,0,0,0,0,0,0,0,0,0,0,0,0,0,0,0,0,0,0,0,0,0,0,0,0,0,0,0,0,0,0,0,0
12.29,-1722,1714,-1002,2414,1551,-2741,2,0,3,0,0,2,0,0,0,5,2,1,1,0,4,0,0,0,0,0,3,1,2,0,2,2,0,5,0,4,2,1,4,3,0,0,4,0,0,3,0,0,0,0,0,0,0,0,0,0,0,0,0,0,0,0,0,0,0,0,0,0,0,0,0,0,0,0,0,0,0,0,0,0,0,0,0,0,0,0,0,0,0,0,0,0
12.3,-1722,1714,-1002,2414,1551,-2741,2,0,3,0,0,2,0,0,0,5,2,1,1,0,4,0,0,0,0,0,3,1,2,0,2,2,0,5,0,4,2,1,4,3,0,0,4,0,0,3,0,0,0,0,0,0,0,0,0,0,0,0,0,0,0,0,0,0,0,0,0,0,0,0,0,0,0,0,0,0,0,0,0,0,0,0,0,0,0,0,0,0,0,0,0,0
12.31,-1722,1714,-1002,2414,1551,-2741,2,0,3,0,0,2,0,0,0,5,2,1,1,0,4,0,0,0,0,0,3,1,2,0,2,2,0,5,0,4,2,1,4,3,0,0,4,0,0,3,0,0,0,0,0,0,0,0,0,0,0,0,0,0,0,0,0,0,0,0,0,0,0,0,0,0,0,0,0,0,0,0,0,0,0,0,0,0,0,0,0,0,0,0,0,0
12.32,-1722,1714,-1002,2414,1551,-2741,2,0,3,0,0,2,0,0,0,5,2,1,1,0,4,0,0,0,0,0,3,1,2,0,2,2,0,5,0,4,2,1,4,3,0,0,4,0,0,3,0,0,0,0,0,0,0,0,0,0,0,0,0,0,0,0,0,0,0,0,0,0,0,0,0,0,0,0,0,0,0,0,0,0,0,0,0,0,0,0,0,0,0,0,0,0
12.33,-1722,1714,-1002,2414,1551,-2741,2,0,3,0,0,2,0,0,0,5,2,1,1,0,4,0,0,0,0,0,3,1,2,0,2,2,0,5,0,4,2,1,4,3,0,0,4,0,0,3,0,0,0,0,0,0,0,0,0,0,0,0,0,0,0,0,0,0,0,0,0,0,0,0,0,0,0,0,0,0,0,0,0,0,0,0,0,0,0,0,0,0,0,0,0,0
12.34,-1722,1714,-1002,2414,1551,-2741,2,0,3,0,0,2,0,0,0,5,2,1,1,0,4,0,0,0,0,0,3,1,2,0,2,2,0,5,0,4,2,1,4,3,0,0,4,0,0,3,0,0,0,0,0,0,0,0,0,0,0,0,0,0,0,0,0,0,0,0,0,0,0,0,0,0,0,0,0,0,0,0,0,0,0,0,0,0,0,0,0,0,0,0,0,0
12.35,-1788,2075,-1850,1176,426,-3076,4,0,3,0,2,0,2,14,0,1,1,15,2,1,2,14,1,0,2,0,0,3,17,2,1,8,1,4,0,1,2,5,0,2,3,0,4,4,1,0,0,0,0,0,0,0,0,0,0,0,0,0,0,0,0,0,0,0,0,0,0,0,0,0,0,0,0,0,0,0,0,0,0,0,0,0,0,0,0,0,0,0,0,0,0,0
12.36,-412,721,-1067,-904,30,-1514,0,2,2,0,3,4,3,0,0,2,0,0,0,3,0,1,1,3,0,0,1,1,1,1,4,0,1,3,0,2,3,0,0,1,0,0,2,0,0,2,0,0,0,0,0,0,0,0,0,0,0,0,0,0,0,0,0,0,0,0,0,0,0,0,0,0,0,0,0,0,0,0,0,0,0,0,0,0,0,0,0,0,0,0,0,0
12.37,-307,613,-1071,-1000,-386,-976,0,0,2,0,1,3,2,0,1,1,2,0,0,0,0,0,2,2,2,0,1,2,0,2,4,0,3,2,2,2,2,0,1,2,0,0,1,0,0,2,0,0,0,0,0,0,0,0,0,0,0,0,0,0,0,0,0,0,0,0,0,0,0,0,0,0,0,0,0,0,0,0,0,0,0,0,0,0,0,0,0,0,0,0,0,0
12.38,-159,561,-1123,-1108,-852,-475,1,1,2,0,1,2,2,11,2,1,2,13,1,2,2,0,1,0,2,0,2,2,0,1,2,0,1,0,1,0,2,0,2,2,0,1,2,0,1,2,0,0,0,0,0,0,0,0,0,0,0,0,0,0,0,0,0,0,0,0,0,0,0,0,0,0,0,0,0,0,0,0,0,0,0,0,0,0,0,0,0,0,0,0,0,0
12.39,-159,561,-1123,-1108,-852,-475,1,1,2,0,1,2,2,11,2,1,2,13,1,2,2,0,1,0,2,0,2,2,0,1,2,0,1,0,1,0,2,0,2,2,0,1,2,0,1,2,0,0,0,0,0,0,0,0,0,0,0,0,0,0,0,0,0,0,0,0,0,0,0,0,0,0,0,0,0,0,0,0,0,0,0,0,0,0,0,0,0,0,0,0,0,0
12.4,-159,561,-1123,-1108,-852,-475,1,1,2,0,1,2,2,11,2,1,2,13,1,2,2,0,1,0,2,0,2,2,0,1,2,0,1,0,1,0,2,0,2,2,0,1,2,0,1,2,0,0,0,0,0,0,0,0,0,0,0,0,0,0,0,0,0,0,0,0,0,0,0,0,0,0,0,0,0,0,0,0,0,0,0,0,0,0,0,0,0,0,0,0,0,0
12.41,-159,561,-1123,-1108,-852,-475,1,1,2,0,1,2,2,11,2,1,2,13,1,2,2,0,1,0,2,0,2,2,0,1,2,0,1,0,1,0,2,0,2,2,0,1,2,0,1,2,0,0,0,0,0,0,0,0,0,0,0,0,0,0,0,0,0,0,0,0,0,0,0,0,0,0,0,0,0,0,0,0,0,0,0,0,0,0,0,0,0,0,0,0,0,0
12.42,-159,561,-1123,-1108,-852,-475,1,1,2,0,1,2,2,11,2,1,2,13,1,2,2,0,1,0,2,0,2,2,0,1,2,0,1,0,1,0,2,0,2,2,0,1,2,0,1,2,0,0,0,0,0,0,0,0,0,0,0,0,0,0,0,0,0,0,0,0,0,0,0,0,0,0,0,0,0,0,0,0,0,0,0,0,0,0,0,0,0,0,0,0,0,0
12.43,-84,488,-1204,-1226,-1201,-25,0,0,2,0,1,2,1,11,0,1,1,15,2,0,2,15,1,1,2,0,2,3,16,2,0,6,2,0,1,0,1,4,3,3,2,1,3,3,2,2,0,0,0,0,0,0,0,0,0,0,0,0,0,0,0,0,0,0,0,0,0,0,0,0,0,0,0,0,0,0,0,0,0,0,0,0,0,0,0,0,0,0,0,0,0,0
12.44,128,-266,-2450,-2959,-1413,961,0,0,1,0,2,0,2,1,2,2,1,15,3,3,1,0,3,2,0,0,4,1,0,4,1,0,1,2,0,7,3,0,4,1,0,1,1,0,1,5,0,0,0,0,0,0,0,0,0,0,0,0,0,0,0,0,0,0,0,0,0,0,0,0,0,0,0,0,0,0,0,0,0,0,0,0,0,0,0,0,0,0,0,0,0,0
12.45,21,-296,-2575,-3013,-1318,1013,1,4,3,2,0,0,2,0,0,0,2,0,2,2,2,0,2,1,2,0,4,1,0,3,1,0,3,1,0,0,2,0,2,1,0,0,1,0,1,3,0,0,0,0,0,0,0,0,0,0,0,0,0,0,0,0,0,0,0,0,0,0,0,0,0,0,0,0,0,0,0,0,0,0,0,0,0,0,0,0,0,0,0,0,0,0
12.46,-57,-330,-2687,-3064,-1286,1073,1,2,2,0,2,2,2,11,1,1,2,14,1,1,1,0,2,1,2,0,1,2,0,4,2,0,1,2,2,2,2,0,0,2,0,2,2,0,2,2,0,0,0,0,0,0,0,0,0,0,0,0,0,0,0,0,0,0,0,0,0,0,0,0,0,0,0,0,0,0,0,0,0,0,0,0,0,0,0,0,0,0,0,0,0,0
12.47,-57,-330,-2687,-3064,-1286,1073,1,2,2,0,2,2,2,11,1,1,2,14,1,1,1,0,2,1,2,0,1,2,0,4,2,0,1,2,2,2,2,0,0,2,0,2,2,0,2,2,0,0,0,0,0,0,0,0,0,0,0,0,0,0,0,0,0,0,0,0,0,0,0,0,0,0,0,0,0,0,0,0,0,0,0,0,0,0,0,0,0,0,0,0,0,0
12.48,-57,-330,-2687,-3064,-1286,1073,1,2,2,0,2,2,2,11,1,1,2,14,1,1,1,0,2,1,2,0,1,2,0,4,2,0,1,2,2,2,2,0,0,2,0,2,2,0,2,2,0,0,0,0,0,0,0,0,0,0,0,0,0,0,0,0,0,0,0,0,0,0,0,0,0,0,0,0,0,0,0,0,0,0,0,0,0,0,0,0,0,0,0,0,0,0
12.49,-57,-330,-2687,-3064,-1286,1073,1,2,2,0,2,2,2,11,1,1,2,14,1,1,1,0,2,1,2,0,1,2,0,4,2,0,1,2,2,2,2,0,0,2,0,2,2,0,2,2,0,0,0,0,0,0,0,0,0,0,0,0,0,0,0,0,0,0,0,0,0,0,0,0,0,0,0,0,0,0,0,0,0,0,0,0,0,0,0,0,0,0,0,0,0,0
12.5,-98,-407,-2791,-3112,-1302,1142,2,5,2,0,2,2,2,11,0,3,2,13,0,1,1,15,1,2,1,0,0,2,16,1,1,5,1,4,2,5,1,5,1,0,3,1,1,3,0,0,0,0,0,0,0,0,0,0,0,0,0,0,0,0,0,0,0,0,0,0,0,0,0,0,0,0,0,0,0,0,0,0,0,0,0,0,0,0,0,0,0,0,0,0,0,0
12.51,-81,-472,-2892,-3161,-1329,1230,2,1,3,0,7,2,2,11,0,1,1,0,1,4,1,0,2,0,2,0,0,1,0,1,2,0,0,0,1,1,0,0,0,0,2,0,2,0,0,5,0,0,0,0,0,0,0,0,0,0,0,0,0,0,0,0,0,0,0,0,0,0,0,0,0,0,0,0,0,0,0,0,0,0,0,0,0,0,0,0,0,0,0,0,0,0
12.52,-140,-835,-3185,-3371,-1164,1840,0,3,1,0,2,2,0,2,3,3,2,0,3,1,3,0,3,2,1,0,1,0,0,1,1,0,0,1,0,3,0,0,0,1,0,0,1,5,0,4,0,0,0,0,0,0,0,0,0,0,0,0,0,0,0,0,0,0,0,0,0,0,0,0,0,0,0,0,0,0,0,0,0,0,0,0,0,0,0,0,0,0,0,0,0,0
12.53,-242,-1100,-3260,-3392,-1112,1991,8,7,2,0,4,0,1,14,2,0,1,15,5,0,1,15,3,1,2,0,4,4,18,2,0,5,0,0,3,1,1,6,0,4,2,1,2,0,2,3,0,0,0,0,0,0,0,0,0,0,0,0,0,0,0,0,0,0,0,0,0,0,0,0,0,0,0,0,0,0,0,0,0,0,0,0,0,0,0,0,0,0,0,0,0,0
12.54,-259,-1246,-3297,-3374,-1070,2113,6,0,3,0,3,0,1,10,0,2,0,0,0,5,3,1,3,3,2,0,0,1,2,2,3,0,5,0,0,0,2,3,9,0,1,1,3,2,0,3,0,0,0,0,0,0,0,0,0,0,0,0,0,0,0,0,0,0,0,0,0,0,0,0,0,0,0,0,0,0,0,0,0,0,0,0,0,0,0,0,0,0,0,0,0,0
12.55,-259,-1246,-3297,-3374,-1070,2113,6,0,3,0,3,0,1,10,0,2,0,0,0,5,3,1,3,3,2,0,0,1,2,2,3,0,5,0,0,0,2,3,9,0,1,1,3,2,0,3,0,0,0,0,0,0,0,0,0,0,0,0,0,0,0,0,0,0,0,0,0,0,0,0,0,0,0,0,0,0,0,0,0,0,0,0,0,0,0,0,0,0,0,0,0,0
12.56,-259,-1246,-3297,-3374,-1070,2113,6,0,3,0,3,0,1,10,0,2,0,0,0,5,3,1,3,3,2,0,0,1,2,2,3,0,5,0,0,0,2,3,9,0,1,1,3,2,0,3,0,0,0,0,0,0,0,0,0,0,0,0,0,0,0,0,0,0,0,0,0,0,0,0,0,0,0,0,0,0,0,0,0,0,0,0,0,0,0,0,0,0,0,0,0,0
12.57,-259,-1246,-3297,-3374,-1070,2113,6,0,3,0,3,0,1,10,0,2,0,0,0,5,3,1,3,3,2,0,0,1,2,2,3,0,5,0,0,0,2,3,9,0,1,1,3,2,0,3,0,0,0,0,0,0,0,0,0,0,0,0,0,0,0,0,0,0,0,0,0,0,0,0,0,0,0,0,0,0,0,0,0,0,0,0,0,0,0,0,0,0,0,0,0,0
12.58,-259,-1246,-3297,-3374,-1070,2113,6,0,3,0,3,0,1,10,0,2,0,0,0,5,3,1,3,3,2,0,0,1,2,2,3,0,5,0,0,0,2,3,9,0,1,1,3,2,0,3,0,0,0,0,0,0,0,0,0,0,0,0,0,0,0,0,0,0,0,0,0,0,0,0,0,0,0,0,0,0,0,0,0,0,0,0,0,0,0,0,0,0,0,0,0,0
12.59,-259,-1246,-3297,-3374,-1070,2113,6,0,3,0,3,0,1,10,0,2,0,0,0,5,3,1,3,3,2,0,0,1,2,2,3,0,5,0,0,0,2,3,9,0,1,1,3,2,0,3,0,0,0,0,0,0,0,0,0,0,0,0,0,0,0,0,0,0,0,0,0,0,0,0,0,0,0,0,0,0,0,0,0,0,0,0,0,0,0,0,0,0,0,0,0,0
12.6,-259,-1246,-3297,-3374,-1070,2113,6,0,3,0,3,0,1,10,0,2,0,0,0,5,3,1,3,3,2,0,0,1,2,2,3,0,5,0,0,0,2,3,9,0,1,1,3,2,0,3,0,0,0,0,0,0,0,0,0,0,0,0,0,0,0,0,0,0,0,0,0,0,0,0,0,0,0,0,0,0,0,0,0,0,0,0,0,0,0,0,0,0,0,0,0,0
12.61,-259,-1246,-3297,-3374,-1070,2113,6,0,3,0,3,0,1,10,0,2,0,0,0,5,3,1,3,3,2,0,0,1,2,2,3,0,5,0,0,0,2,3,9,0,1,1,3,2,0,3,0,0,0,0,0,0,0,0,0,0,0,0,0,0,0,0,0,0,0,0,0,0,0,0,0,0,0,0,0,0,0,0,0,0,0,0,0,0,0,0,0,0,0,0,0,0
12.62,-259,-1246,-3297,-3374,-1070,2113,6,0,3,0,3,0,1,10,0,2,0,0,0,5,3,1,3,3,2,0,0,1,2,2,3,0,5,0,0,0,2,3,9,0,1,1,3,2,0,3,0,0,0,0,0,0,0,0,0,0,0,0,0,0,0,0,0,0,0,0,0,0,0,0,0,0,0,0,0,0,0,0,0,0,0,0,0,0,0,0,0,0,0,0,0,0
12.63,-259,-1246,-3297,-3374,-1070,2113,6,0,3,0,3,0,1,10,0,2,0,0,0,5,3,1,3,3,2,0,0,1,2,2,3,0,5,0,0,0,2,3,9,0,1,1,3,2,0,3,0,0,0,0,0,0,0,0,0,0,0,0,0,0,0,0,0,0,0,0,0,0,0,0,0,0,0,0,0,0,0,0,0,0,0,0,0,0,0,0,0,0,0,0,0,0
12.64,-259,-1246,-3297,-3374,-1070,2113,6,0,3,0,3,0,1,10,0,2,0,0,0,5,3,1,3,3,2,0,0,1,2,2,3,0,5,0,0,0,2,3,9,0,1,1,3,2,0,3,0,0,0,0,0,0,0,0,0,0,0,0,0,0,0,0,0,0,0,0,0,0,0,0,0,0,0,0,0,0,0,0,0,0,0,0,0,0,0,0,0,0,0,0,0,0
12.65,-248,-1408,-3229,-3316,-1041,2201,1,4,0,2,6,3,3,10,6,0,1,18,5,1,2,16,0,4,0,0,7,2,18,1,1,6,0,0,4,0,3,4,3,2,4,3,2,2,2,3,0,0,0,0,0,0,0,0,0,0,0,0,0,0,0,0,0,0,0,0,0,0,0,0,0,0,0,0,0,0,0,0,0,0,0,0,0,0,0,0,0,0,0,0,0,0
12.66,-248,-1408,-3229,-3316,-1041,2201,1,4,0,2,6,3,3,10,6,0,1,18,5,1,2,16,0,4,0,0,7,2,18,1,1,6,0,0,4,0,3,4,3,2,4,3,2,2,2,3,0,0,0,0,0,0,0,0,0,0,0,0,0,0,0,0,0,0,0,0,0,0,0,0,0,0,0,0,0,0,0,0,0,0,0,0,0,0,0,0,0,0,0,0,0,0
12.67,-248,-1408,-3229,-3316,-1041,2201,1,4,0,2,6,3,3,10,6,0,1,18,5,1,2,16,0,4,0,0,7,2,18,1,1,6,0,0,4,0,3,4,3,2,4,3,2,2,2,3,0,0,0,0,0,0,0,0,0,0,0,0,0,0,0,0,0,0,0,0,0,0,0,0,0,0,0,0,0,0,0,0,0,0,0,0,0,0,0,0,0,0,0,0,0,0
12.68,-248,-1408,-3229,-3316,-1041,2201,1,4,0,2,6,3,3,10,6,0,1,18,5,1,2,16,0,4,0,0,7,2,18,1,1,6,0,0,4,0,3,4,3,2,4,3,2,2,2,3,0,0,0,0,0,0,0,0,0,0,0,0,0,0,0,0,0,0,0,0,0,0,0,0,0,0,0,0,0,0,0,0,0,0,0,0,0,0,0,0,0,0,0,0,0,0
12.69,-248,-1408,-3229,-3316,-1041,2201,1,4,0,2,6,3,3,10,6,0,1,18,5,1,2,16,0,4,0,0,7,2,18,1,1,6,0,0,4,0,3,4,3,2,4,3,2,2,2,3,0,0,0,0,0,0,0,0,0,0,0,0,0,0,0,0,0,0,0,0,0,0,0,0,0,0,0,0,0,0,0,0,0,0,0,0,0,0,0,0,0,0,0,0,0,0
12.7,-248,-1408,-3229,-3316,-1041,2201,1,4,0,2,6,3,3,10,6,0,1,18,5,1,2,16,0,4,0,0,7,2,18,1,1,6,0,0,4,0,3,4,3,2,4,3,2,2,2,3,0,0,0,0,0,0,0,0,0,0,0,0,0,0,0,0,0,0,0,0,0,0,0,0,0,0,0,0,0,0,0,0,0,0,0,0,0,0,0,0,0,0,0,0,0,0
12.71,-248,-1408,-3229,-3316,-1041,2201,1,4,0,2,6,3,3,10,6,0,1,18,5,1,2,16,0,4,0,0,7,2,18,1,1,6,0,0,4,0,3,4,3,2,4,3,2,2,2,3,0,0,0,0,0,0,0,0,0,0,0,0,0,0,0,0,0,0,0,0,0,0,0,0,0,0,0,0,0,0,0,0,0,0,0,0,0,0,0,0,0,0,0,0,0,0
12.72,-248,-1408,-3229,-3316,-1041,2201,1,4,0,2,6,3,3,10,6,0,1,18,5,1,2,16,0,4,0,0,7,2,18,1,1,6,0,0,4,0,3,4,3,2,4,3,2,2,2,3,0,0,0,0,0,0,0,0,0,0,0,0,0,0,0,0,0,0,0,0,0,0,0,0,0,0,0,0,0,0,0,0,0,0,0,0,0,0,0,0,0,0,0,0,0,0
12.73,488,-2404,-2927,-2885,-1312,2101,0,2,2,0,7,4,2,10,1,2,1,0,2,2,2,0,0,4,2,0,3,1,0,4,3,0,5,3,4,0,2,0,2,3,0,2,1,1,1,0,0,0,0,0,0,0,0,0,0,0,0,0,0,0,0,0,0,0,0,0,0,0,0,0,0,0,0,0,0,0,0,0,0,0,0,0,0,0,0,0,0,0,0,0,0,0
12.74,752,-2731,-2688,-2739,-1306,1970,3,5,0,2,3,0,1,0,0,3,0,5,2,0,0,2,1,0,1,0,2,0,1,0,2,0,2,0,1,0,2,1,3,1,0,0,2,0,2,3,0,0,0,0,0,0,0,0,0,0,0,0,0,0,0,0,0,0,0,0,0,0,0,0,0,0,0,0,0,0,0,0,0,0,0,0,0,0,0,0,0,0,0,0,0,0
12.75,767,-3002,-2453,-2568,-1084,1838,2,1,1,0,2,2,2,10,1,1,1,14,3,2,0,0,2,1,2,0,3,0,0,0,0,0,1,2,0,3,1,4,6,0,0,1,0,1,1,1,0,0,0,0,0,0,0,0,0,0,0,0,0,0,0,0,0,0,0,0,0,0,0,0,0,0,0,0,0,0,0,0,0,0,0,0,0,0,0,0,0,0,0,0,0,0
12.76,529,-3248,-2259,-2355,-654,1715,2,0,1,0,1,0,0,10,1,0,0,14,3,0,4,14,2,1,5,0,2,4,18,4,0,7,4,2,1,3,2,3,1,1,1,2,2,2,2,1,0,0,0,0,0,0,0,0,0,0,0,0,0,0,0,0,0,0,0,0,0,0,0,0,0,0,0,0,0,0,0,0,0,0,0,0,0,0,0,0,0,0,0,0,0,0
12.77,529,-3248,-2259,-2355,-654,1715,2,0,1,0,1,0,0,10,1,0,0,14,3,0,4,14,2,1,5,0,2,4,18,4,0,7,4,2,1,3,2,3,1,1,1,2,2,2,2,1,0,0,0,0,0,0,0,0,0,0,0,0,0,0,0,0,0,0,0,0,0,0,0,0,0,0,0,0,0,0,0,0,0,0,0,0,0,0,0,0,0,0,0,0,0,0
12.78,529,-3248,-2259,-2355,-654,1715,2,0,1,0,1,0,0,10,1,0,0,14,3,0,4,14,2,1,5,0,2,4,18,4,0,7,4,2,1,3,2,3,1,1,1,2,2,2,2,1,0,0,0,0,0,0,0,0,0,0,0,0,0,0,0,0,0,0,0,0,0,0,0,0,0,0,0,0,0,0,0,0,0,0,0,0,0,0,0,0,0,0,0,0,0,0
12.79,529,-3248,-2259,-2355,-654,1715,2,0,1,0,1,0,0,10,1,0,0,14,3,0,4,14,2,1,5,0,2,4,18,4,0,7,4,2,1,3,2,3,1,1,1,2,2,2,2,1,0,0,0,0,0,0,0,0,0,0,0,0,0,0,0,0,0,0,0,0,0,0,0,0,0,0,0,0,0,0,0,0,0,0,0,0,0,0,0,0,0,0,0,0,0,0
12.8,-383,-89,-2506,902,24,17,0,0,0,0,0,0,0,0,0,100,1,0,59,23,86,6,0,0,0,0,10,226,2,4,153,2,4,37,13,15,247,21,76,94,235,49,175,186,79,196,0,0,0,0,0,0,0,0,0,0,0,0,0,0,0,0,0,0,0,0,0,0,0,0,0,0,0,0,0,0,0,0,0,0,0,0,0,0,0,0,0,0,0,0,0,0
12.81,-204,-209,-2303,523,71,4,0,0,0,0,0,0,0,0,2,175,3,0,67,29,115,8,0,0,0,0,10,232,2,4,152,2,4,33,16,92,251,84,47,78,212,36,147,149,79,86,0,0,0,0,0,0,0,0,0,0,0,0,0,0,0,0,0,0,0,0,0,0,0,0,0,0,0,0,0,0,0,0,0,0,0,0,0,0,0,0,0,0,0,0,0,0
12.82,-272,-126,-2050,344,60,6,0,1,0,0,0,0,0,0,1,183,4,0,77,82,136,8,0,0,0,0,10,239,2,4,156,3,4,34,16,127,0,101,33,63,211,32,125,132,74,250,0,0,0,0,0,0,0,0,0,0,0,0,0,0,0,0,0,0,0,0,0,0,0,0,0,0,0,0,0,0,0,0,0,0,0,0,0,0,0,0,0,0,0,0,0,0
12.83,-296,-50,-1967,232,17,18,0,0,0,0,0,0,0,0,3,230,5,1,79,105,163,8,0,0,0,0,12,246,1,4,157,3,4,30,17,133,255,118,13,56,194,32,101,132,70,189,0,0,0,0,0,0,0,0,0,0,0,0,0,0,0,0,0,0,0,0,0,0,0,0,0,0,0,0,0,0,0,0,0,0,0,0,0,0,0,0,0,0,0,0,0,0
12.84,-296,-50,-1967,232,17,18,0,0,0,0,0,0,0,0,3,230,5,1,79,105,163,8,0,0,0,0,12,246,1,4,157,3,4,30,17,133,255,118,13,56,194,32,101,132,70,189,0,0,0,0,0,0,0,0,0,0,0,0,0,0,0,0,0,0,0,0,0,0,0,0,0,0,0,0,0,0,0,0,0,0,0,0,0,0,0,0,0,0,0,0,0,0
12.85,-296,-50,-1967,232,17,18,0,0,0,0,0,0,0,0,3,230,5,1,79,105,163,8,0,0,0,0,12,246,1,4,157,3,4,30,17,133,255,118,13,56,194,32,101,132,70,189,0,0,0,0,0,0,0,0,0,0,0,0,0,0,0,0,0,0,0,0,0,0,0,0,0,0,0,0,0,0,0,0,0,0,0,0,0,0,0,0,0,0,0,0,0,0
12.86,-296,-50,-1967,232,17,18,0,0,0,0,0,0,0,0,3,230,5,1,79,105,163,8,0,0,0,0,12,246,1,4,157,3,4,30,17,133,255,118,13,56,194,32,101,132,70,189,0,0,0,0,0,0,0,0,0,0,0,0,0,0,0,0,0,0,0,0,0,0,0,0,0,0,0,0,0,0,0,0,0,0,0,0,0,0,0,0,0,0,0,0,0,0
12.87,-296,-50,-1967,232,17,18,0,0,0,0,0,0,0,0,3,230,5,1,79,105,163,8,0,0,0,0,12,246,1,4,157,3,4,30,17,133,255,118,13,56,194,32,101,132,70,189,0,0,0,0,0,0,0,0,0,0,0,0,0,0,0,0,0,0,0,0,0,0,0,0,0,0,0,0,0,0,0,0,0,0,0,0,0,0,0,0,0,0,0,0,0,0
12.88,-492,-187,-1904,152,-32,23,0,0,0,0,0,0,0,0,3,28,30,2,91,101,188,9,0,0,0,0,12,245,2,4,156,3,5,70,16,135,237,127,0,36,182,23,82,133,65,120,0,0,0,0,0,0,0,0,0,0,0,0,0,0,0,0,0,0,0,0,0,0,0,0,0,0,0,0,0,0,0,0,0,0,0,0,0,0,0,0,0,0,0,0,0,0
12.89,-516,-224,-1890,93,-54,21,0,0,0,0,0,0,0,0,4,55,62,2,136,145,191,10,0,0,0,0,13,234,1,3,155,4,5,75,17,133,235,141,232,25,162,238,78,144,59,79,0,0,0,0,0,0,0,0,0,0,0,0,0,0,0,0,0,0,0,0,0,0,0,0,0,0,0,0,0,0,0,0,0,0,0,0,0,0,0,0,0,0,0,0,0,0
12.9,-362,-155,-1945,-68,-4,13,0,0,0,0,0,0,0,0,5,103,71,3,154,158,206,11,0,0,0,0,15,211,2,4,168,4,6,118,20,145,224,218,203,1,106,204,106,115,71,250,0,0,0,0,0,0,0,0,0,0,0,0,0,0,0,0,0,0,0,0,0,0,0,0,0,0,0,0,0,0,0,0,0,0,0,0,0,0,0,0,0,0,0,0,0,0
12.91,-355,-129,-1955,-98,-18,15,0,0,0,0,0,0,0,0,6,104,68,3,173,160,205,12,0,0,0,0,16,200,2,4,195,5,7,119,21,148,231,227,194,247,100,199,98,111,58,251,0,0,0,0,0,0,0,0,0,0,0,0,0,0,0,0,0,0,0,0,0,0,0,0,0,0,0,0,0,0,0,0,0,0,0,0,0,0,0,0,0,0,0,0,0,0
12.92,-355,-129,-1955,-98,-18,15,0,0,0,0,0,0,0,0,6,104,68,3,173,160,205,12,0,0,0,0,16,200,2,4,195,5,7,119,21,148,231,227,194,247,100,199,98,111,58,251,0,0,0,0,0,0,0,0,0,0,0,0,0,0,0,0,0,0,0,0,0,0,0,0,0,0,0,0,0,0,0,0,0,0,0,0,0,0,0,0,0,0,0,0,0,0
12.93,-355,-129,-1955,-98,-18,15,0,0,0,0,0,0,0,0,6,104,68,3,173,160,205,12,0,0,0,0,16,200,2,4,195,5,7,119,21,148,231,227,194,247,100,199,98,111,58,251,0,0,0,0,0,0,0,0,0,0,0,0,0,0,0,0,0,0,0,0,0,0,0,0,0,0,0,0,0,0,0,0,0,0,0,0,0,0,0,0,0,0,0,0,0,0
12.94,-355,-129,-1955,-98,-18,15,0,0,0,0,0,0,0,0,6,104,68,3,173,160,205,12,0,0,0,0,16,200,2,4,195,5,7,119,21,148,231,227,194,247,100,199,98,111,58,251,0,0,0,0,0,0,0,0,0,0,0,0,0,0,0,0,0,0,0,0,0,0,0,0,0,0,0,0,0,0,0,0,0,0,0,0,0,0,0,0,0,0,0,0,0,0
12.95,-355,-129,-1955,-98,-18,15,0,0,0,0,0,0,0,0,6,104,68,3,173,160,205,12,0,0,0,0,16,200,2,4,195,5,7,119,21,148,231,227,194,247,100,199,98,111,58,251,0,0,0,0,0,0,0,0,0,0,0,0,0,0,0,0,0,0,0,0,0,0,0,0,0,0,0,0,0,0,0,0,0,0,0,0,0,0,0,0,0,0,0,0,0,0
12.96,-355,-129,-1955,-98,-18,15,0,0,0,0,0,0,0,0,6,104,68,3,173,160,205,12,0,0,0,0,16,200,2,4,195,5,7,119,21,148,231,227,194,247,100,199,98,111,58,251,0,0,0,0,0,0,0,0,0,0,0,0,0,0,0,0,0,0,0,0,0,0,0,0,0,0,0,0,0,0,0,0,0,0,0,0,0,0,0,0,0,0,0,0,0,0
12.97,-355,-129,-1955,-98,-18,15,0,0,0,0,0,0,0,0,6,104,68,3,173,160,205,12,0,0,0,0,16,200,2,4,195,5,7,119,21,148,231,227,194,247,100,199,98,111,58,251,0,0,0,0,0,0,0,0,0,0,0,0,0,0,0,0,0,0,0,0,0,0,0,0,0,0,0,0,0,0,0,0,0,0,0,0,0,0,0,0,0,0,0,0,0,0
12.98,-355,-129,-1955,-98,-18,15,0,0,0,0,0,0,0,0,6,104,68,3,173,160,205,12,0,0,0,0,16,200,2,4,195,5,7,119,21,148,231,227,194,247,100,199,98,111,58,251,0,0,0,0,0,0,0,0,0,0,0,0,0,0,0,0,0,0,0,0,0,0,0,0,0,0,0,0,0,0,0,0,0,0,0,0,0,0,0,0,0,0,0,0,0,0
12.99,-355,-129,-1955,-98,-18,15,0,0,0,0,0,0,0,0,6,104,68,3,173,160,205,12,0,0,0,0,16,200,2,4,195,5,7,119,21,148,231,227,194,247,100,199,98,111,58,251,0,0,0,0,0,0,0,0,0,0,0,0,0,0,0,0,0,0,0,0,0,0,0,0,0,0,0,0,0,0,0,0,0,0,0,0,0,0,0,0,0,0,0,0,0,0
13,-355,-129,-1955,-98,-18,15,0,0,0,0,0,0,0,0,6,104,68,3,173,160,205,12,0,0,0,0,16,200,2,4,195,5,7,119,21,148,231,227,194,247,100,199,98,111,58,251,0,0,0,0,0,0,0,0,0,0,0,0,0,0,0,0,0,0,0,0,0,0,0,0,0,0,0,0,0,0,0,0,0,0,0,0,0,0,0,0,0,0,0,0,0,0
13.01,-355,-129,-1955,-98,-18,15,0,0,0,0,0,0,0,0,6,104,68,3,173,160,205,12,0,0,0,0,16,200,2,4,195,5,7,119,21,148,231,227,194,247,100,199,98,111,58,251,0,0,0,0,0,0,0,0,0,0,0,0,0,0,0,0,0,0,0,0,0,0,0,0,0,0,0,0,0,0,0,0,0,0,0,0,0,0,0,0,0,0,0,0,0,0
13.02,-355,-129,-1955,-98,-18,15,0,0,0,0,0,0,0,0,6,104,68,3,173,160,205,12,0,0,0,0,16,200,2,4,195,5,7,119,21,148,231,227,194,247,100,199,98,111,58,251,0,0,0,0,0,0,0,0,0,0,0,0,0,0,0,0,0,0,0,0,0,0,0,0,0,0,0,0,0,0,0,0,0,0,0,0,0,0,0,0,0,0,0,0,0,0
13.03,-366,-110,-1986,-116,-47,21,0,0,0,0,0,0,0,0,6,103,67,4,172,157,188,12,0,0,0,0,16,192,2,4,195,5,8,131,21,152,228,243,186,27,92,207,98,103,51,252,0,0,0,0,0,0,0,0,0,0,0,0,0,0,0,0,0,0,0,0,0,0,0,0,0,0,0,0,0,0,0,0,0,0,0,0,0,0,0,0,0,0,0,0,0,0
13.04,-331,-172,-2011,-128,-74,25,0,0,0,0,0,0,0,0,14,115,96,22,0,0,0,0,0,0,0,0,45,238,4,16,57,7,22,170,48,213,59,18,57,181,102,251,98,56,118,138,0,0,0,0,0,0,0,0,0,0,0,0,0,0,0,0,0,0,0,0,0,0,0,0,0,0,0,0,0,0,0,0,0,0,0,0,0,0,0,0,0,0,0,0,0,0
13.05,-421,-109,-1985,-109,-117,30,0,0,0,0,0,0,0,0,15,96,113,30,0,0,0,0,0,0,0,0,75,4,7,18,132,11,26,224,103,39,40,39,82,233,166,233,1,217,81,24,0,0,0,0,0,0,0,0,0,0,0,0,0,0,0,0,0,0,0,0,0,0,0,0,0,0,0,0,0,0,0,0,0,0,0,0,0,0,0,0,0,0,0,0,0,0
13.06,-348,-157,-2004,-101,-102,28,0,0,0,0,0,0,0,0,16,91,110,31,0,0,0,0,0,0,0,0,75,5,5,20,133,11,30,227,109,41,39,42,82,235,166,235,3,212,64,25,0,0,0,0,0,0,0,0,0,0,0,0,0,0,0,0,0,0,0,0,0,0,0,0,0,0,0,0,0,0,0,0,0,0,0,0,0,0,0,0,0,0,0,0,0,0
13.07,-440,-135,-2000,-92,-86,23,0,0,0,0,0,0,0,0,14,58,85,30,0,0,0,0,0,0,0,0,45,242,6,19,135,12,30,228,110,42,39,40,81,231,170,238,1,206,61,27,0,0,0,0,0,0,0,0,0,0,0,0,0,0,0,0,0,0,0,0,0,0,0,0,0,0,0,0,0,0,0,0,0,0,0,0,0,0,0,0,0,0,0,0,0,0
13.08,-440,-135,-2000,-92,-86,23,0,0,0,0,0,0,0,0,14,58,85,30,0,0,0,0,0,0,0,0,45,242,6,19,135,12,30,228,110,42,39,40,81,231,170,238,1,206,61,27,0,0,0,0,0,0,0,0,0,0,0,0,0,0,0,0,0,0,0,0,0,0,0,0,0,0,0,0,0,0,0,0,0,0,0,0,0,0,0,0,0,0,0,0,0,0
13.09,-440,-135,-2000,-92,-86,23,0,0,0,0,0,0,0,0,14,58,85,30,0,0,0,0,0,0,0,0,45,242,6,19,135,12,30,228,110,42,39,40,81,231,170,238,1,206,61,27,0,0,0,0,0,0,0,0,0,0,0,0,0,0,0,0,0,0,0,0,0,0,0,0,0,0,0,0,0,0,0,0,0,0,0,0,0,0,0,0,0,0,0,0,0,0
13.1,-454,-138,-1975,-88,-80,18,0,0,0,0,0,0,0,0,15,81,106,31,0,0,0,0,0,0,0,0,76,14,8,22,137,12,31,227,111,43,41,42,77,231,173,234,252,203,62,39,0,0,0,0,0,0,0,0,0,0,0,0,0,0,0,0,0,0,0,0,0,0,0,0,0,0,0,0,0,0,0,0,0,0,0,0,0,0,0,0,0,0,0,0,0,0
13.11,-390,-133,-1942,28,-13,-7,0,0,0,0,0,0,0,0,9,243,67,3,0,0,0,0,0,0,0,0,58,75,8,22,175,15,71,7,72,67,31,32,114,206,167,235,177,232,63,247,0,0,0,0,0,0,0,0,0,0,0,0,0,0,0,0,0,0,0,0,0,0,0,0,0,0,0,0,0,0,0,0,0,0,0,0,0,0,0,0,0,0,0,0,0,0
13.12,-406,-54,-1937,38,-9,-9,0,0,0,0,0,0,0,0,11,0,73,24,0,0,0,0,0,0,0,0,60,79,8,23,181,15,82,7,93,72,29,36,107,201,148,215,171,234,47,233,0,0,0,0,0,0,0,0,0,0,0,0,0,0,0,0,0,0,0,0,0,0,0,0,0,0,0,0,0,0,0,0,0,0,0,0,0,0,0,0,0,0,0,0,0,0
13.13,-408,-149,-1917,50,12,-13,0,0,0,0,0,0,0,0,12,16,77,36,0,0,0,0,0,0,0,0,62,80,9,23,188,16,88,11,108,69,22,39,103,199,139,209,164,227,29,205,0,0,0,0,0,0,0,0,0,0,0,0,0,0,0,0,0,0,0,0,0,0,0,0,0,0,0,0,0,0,0,0,0,0,0,0,0,0,0,0,0,0,0,0,0,0
13.14,-408,-149,-1917,50,12,-13,0,0,0,0,0,0,0,0,12,16,77,36,0,0,0,0,0,0,0,0,62,80,9,23,188,16,88,11,108,69,22,39,103,199,139,209,164,227,29,205,0,0,0,0,0,0,0,0,0,0,0,0,0,0,0,0,0,0,0,0,0,0,0,0,0,0,0,0,0,0,0,0,0,0,0,0,0,0,0,0,0,0,0,0,0,0
13.15,-408,-149,-1917,50,12,-13,0,0,0,0,0,0,0,0,12,16,77,36,0,0,0,0,0,0,0,0,62,80,9,23,188,16,88,11,108,69,22,39,103,199,139,209,164,227,29,205,0,0,0,0,0,0,0,0,0,0,0,0,0,0,0,0,0,0,0,0,0,0,0,0,0,0,0,0,0,0,0,0,0,0,0,0,0,0,0,0,0,0,0,0,0,0
13.16,-408,-149,-1917,50,12,-13,0,0,0,0,0,0,0,0,12,16,77,36,0,0,0,0,0,0,0,0,62,80,9,23,188,16,88,11,108,69,22,39,103,199,139,209,164,227,29,205,0,0,0,0,0,0,0,0,0,0,0,0,0,0,0,0,0,0,0,0,0,0,0,0,0,0,0,0,0,0,0,0,0,0,0,0,0,0,0,0,0,0,0,0,0,0
13.17,-408,-149,-1917,50,12,-13,0,0,0,0,0,0,0,0,12,16,77,36,0,0,0,0,0,0,0,0,62,80,9,23,188,16,88,11,108,69,22,39,103,199,139,209,164,227,29,205,0,0,0,0,0,0,0,0,0,0,0,0,0,0,0,0,0,0,0,0,0,0,0,0,0,0,0,0,0,0,0,0,0,0,0,0,0,0,0,0,0,0,0,0,0,0
13.18,-456,-76,-1906,45,22,-15,0,0,0,0,0,0,0,0,15,53,84,41,0,0,0,0,0,0,0,0,64,101,10,27,190,17,93,16,115,71,14,42,97,194,135,199,152,223,23,179,0,0,0,0,0,0,0,0,0,0,0,0,0,0,0,0,0,0,0,0,0,0,0,0,0,0,0,0,0,0,0,0,0,0,0,0,0,0,0,0,0,0,0,0,0,0
13.19,-376,-98,-1972,47,22,-15,0,0,0,0,0,0,0,0,24,110,110,91,0,0,0,0,0,0,0,0,73,112,12,35,183,21,118,23,139,85,26,59,91,173,93,185,125,189,225,86,0,0,0,0,0,0,0,0,0,0,0,0,0,0,0,0,0,0,0,0,0,0,0,0,0,0,0,0,0,0,0,0,0,0,0,0,0,0,0,0,0,0,0,0,0,0
13.2,-381,-107,-1978,55,12,-14,0,0,0,0,0,0,0,0,70,139,132,101,0,0,0,0,0,0,0,0,78,128,13,43,177,20,129,26,149,87,29,66,91,166,82,157,107,186,175,60,0,0,0,0,0,0,0,0,0,0,0,0,0,0,0,0,0,0,0,0,0,0,0,0,0,0,0,0,0,0,0,0,0,0,0,0,0,0,0,0,0,0,0,0,0,0
13.21,-352,-122,-1990,64,-2,-15,0,0,0,0,0,0,0,0,76,152,138,106,0,0,0,0,0,0,0,0,121,144,16,49,179,20,137,33,157,85,25,72,83,163,71,167,92,176,140,5,0,0,0,0,0,0,0,0,0,0,0,0,0,0,0,0,0,0,0,0,0,0,0,0,0,0,0,0,0,0,0,0,0,0,0,0,0,0,0,0,0,0,0,0,0,0
13.22,-352,-122,-1990,64,-2,-15,0,0,0,0,0,0,0,0,76,152,138,106,0,0,0,0,0,0,0,0,121,144,16,49,179,20,137,33,157,85,25,72,83,163,71,167,92,176,140,5,0,0,0,0,0,0,0,0,0,0,0,0,0,0,0,0,0,0,0,0,0,0,0,0,0,0,0,0,0,0,0,0,0,0,0,0,0,0,0,0,0,0,0,0,0,0
13.23,-352,-122,-1990,64,-2,-15,0,0,0,0,0,0,0,0,76,152,138,106,0,0,0,0,0,0,0,0,121,144,16,49,179,20,137,33,157,85,25,72,83,163,71,167,92,176,140,5,0,0,0,0,0,0,0,0,0,0,0,0,0,0,0,0,0,0,0,0,0,0,0,0,0,0,0,0,0,0,0,0,0,0,0,0,0,0,0,0,0,0,0,0,0,0
13.24,-352,-122,-1990,64,-2,-15,0,0,0,0,0,0,0,0,76,152,138,106,0,0,0,0,0,0,0,0,121,144,16,49,179,20,137,33,157,85,25,72,83,163,71,167,92,176,140,5,0,0,0,0,0,0,0,0,0,0,0,0,0,0,0,0,0,0,0,0,0,0,0,0,0,0,0,0,0,0,0,0,0,0,0,0,0,0,0,0,0,0,0,0,0,0
13.25,-352,-122,-1990,64,-2,-15,0,0,0,0,0,0,0,0,76,152,138,106,0,0,0,0,0,0,0,0,121,144,16,49,179,20,137,33,157,85,25,72,83,163,71,167,92,176,140,5,0,0,0,0,0,0,0,0,0,0,0,0,0,0,0,0,0,0,0,0,0,0,0,0,0,0,0,0,0,0,0,0,0,0,0,0,0,0,0,0,0,0,0,0,0,0
13.26,-352,-122,-1990,64,-2,-15,0,0,0,0,0,0,0,0,76,152,138,106,0,0,0,0,0,0,0,0,121,144,16,49,179,20,137,33,157,85,25,72,83,163,71,167,92,176,140,5,0,0,0,0,0,0,0,0,0,0,0,0,0,0,0,0,0,0,0,0,0,0,0,0,0,0,0,0,0,0,0,0,0,0,0,0,0,0,0,0,0,0,0,0,0,0
13.27,-352,-122,-1990,64,-2,-15,0,0,0,0,0,0,0,0,76,152,138,106,0,0,0,0,0,0,0,0,121,144,16,49,179,20,137,33,157,85,25,72,83,163,71,167,92,176,140,5,0,0,0,0,0,0,0,0,0,0,0,0,0,0,0,0,0,0,0,0,0,0,0,0,0,0,0,0,0,0,0,0,0,0,0,0,0,0,0,0,0,0,0,0,0,0
13.28,-352,-122,-1990,64,-2,-15,0,0,0,0,0,0,0,0,76,152,138,106,0,0,0,0,0,0,0,0,121,144,16,49,179,20,137,33,157,85,25,72,83,163,71,167,92,176,140,5,0,0,0,0,0,0,0,0,0,0,0,0,0,0,0,0,0,0,0,0,0,0,0,0,0,0,0,0,0,0,0,0,0,0,0,0,0,0,0,0,0,0,0,0,0,0
13.29,-352,-122,-1990,64,-2,-15,0,0,0,0,0,0,0,0,76,152,138,106,0,0,0,0,0,0,0,0,121,144,16,49,179,20,137,33,157,85,25,72,83,163,71,167,92,176,140,5,0,0,0,0,0,0,0,0,0,0,0,0,0,0,0,0,0,0,0,0,0,0,0,0,0,0,0,0,0,0,0,0,0,0,0,0,0,0,0,0,0,0,0,0,0,0
13.3,-352,-122,-1990,64,-2,-15,0,0,0,0,0,0,0,0,76,152,138,106,0,0,0,0,0,0,0,0,121,144,16,49,179,20,137,33,157,85,25,72,83,163,71,167,92,176,140,5,0,0,0,0,0,0,0,0,0,0,0,0,0,0,0,0,0,0,0,0,0,0,0,0,0,0,0,0,0,0,0,0,0,0,0,0,0,0,0,0,0,0,0,0,0,0
13.31,-352,-122,-1990,64,-2,-15,0,0,0,0,0,0,0,0,76,152,138,106,0,0,0,0,0,0,0,0,121,144,16,49,179,20,137,33,157,85,25,72,83,163,71,167,92,176,140,5,0,0,0,0,0,0,0,0,0,0,0,0,0,0,0,0,0,0,0,0,0,0,0,0,0,0,0,0,0,0,0,0,0,0,0,0,0,0,0,0,0,0,0,0,0,0
13.32,-352,-122,-1990,64,-2,-15,0,0,0,0,0,0,0,0,76,152,138,106,0,0,0,0,0,0,0,0,121,144,16,49,179,20,137,33,157,85,25,72,83,163,71,167,92,176,140,5,0,0,0,0,0,0,0,0,0,0,0,0,0,0,0,0,0,0,0,0,0,0,0,0,0,0,0,0,0,0,0,0,0,0,0,0,0,0,0,0,0,0,0,0,0,0
13.33,-379,-102,-1979,73,-15,-13,0,0,0,0,0,0,0,0,79,165,143,124,0,0,0,0,0,0,0,0,140,143,16,52,211,21,146,40,160,81,18,76,87,154,55,163,75,175,124,227,0,0,0,0,0,0,0,0,0,0,0,0,0,0,0,0,0,0,0,0,0,0,0,0,0,0,0,0,0,0,0,0,0,0,0,0,0,0,0,0,0,0,0,0,0,0
13.34,-319,-153,-1981,76,-22,-11,0,0,0,0,0,0,0,0,92,173,146,147,0,0,0,0,0,0,0,0,145,142,18,55,223,25,152,42,172,86,12,74,84,152,39,161,67,161,94,209,0,0,0,0,0,0,0,0,0,0,0,0,0,0,0,0,0,0,0,0,0,0,0,0,0,0,0,0,0,0,0,0,0,0,0,0,0,0,0,0,0,0,0,0,0,0
13.35,-319,-153,-1981,76,-22,-11,0,0,0,0,0,0,0,0,92,173,146,147,0,0,0,0,0,0,0,0,145,142,18,55,223,25,152,42,172,86,12,74,84,152,39,161,67,161,94,209,0,0,0,0,0,0,0,0,0,0,0,0,0,0,0,0,0,0,0,0,0,0,0,0,0,0,0,0,0,0,0,0,0,0,0,0,0,0,0,0,0,0,0,0,0,0
13.36,-319,-153,-1981,76,-22,-11,0,0,0,0,0,0,0,0,92,173,146,147,0,0,0,0,0,0,0,0,145,142,18,55,223,25,152,42,172,86,12,74,84,152,39,161,67,161,94,209,0,0,0,0,0,0,0,0,0,0,0,0,0,0,0,0,0,0,0,0,0,0,0,0,0,0,0,0,0,0,0,0,0,0,0,0,0,0,0,0,0,0,0,0,0,0
13.37,-319,-153,-1981,76,-22,-11,0,0,0,0,0,0,0,0,92,173,146,147,0,0,0,0,0,0,0,0,145,142,18,55,223,25,152,42,172,86,12,74,84,152,39,161,67,161,94,209,0,0,0,0,0,0,0,0,0,0,0,0,0,0,0,0,0,0,0,0,0,0,0,0,0,0,0,0,0,0,0,0,0,0,0,0,0,0,0,0,0,0,0,0,0,0
13.38,-319,-153,-1981,76,-22,-11,0,0,0,0,0,0,0,0,92,173,146,147,0,0,0,0,0,0,0,0,145,142,18,55,223,25,152,42,172,86,12,74,84,152,39,161,67,161,94,209,0,0,0,0,0,0,0,0,0,0,0,0,0,0,0,0,0,0,0,0,0,0,0,0,0,0,0,0,0,0,0,0,0,0,0,0,0,0,0,0,0,0,0,0,0,0
13.39,-319,-153,-1981,76,-22,-11,0,0,0,0,0,0,0,0,92,173,146,147,0,0,0,0,0,0,0,0,145,142,18,55,223,25,152,42,172,86,12,74,84,152,39,161,67,161,94,209,0,0,0,0,0,0,0,0,0,0,0,0,0,0,0,0,0,0,0,0,0,0,0,0,0,0,0,0,0,0,0,0,0,0,0,0,0,0,0,0,0,0,0,0,0,0
13.4,-383,-118,-1990,97,-22,-12,1,3,45,0,0,0,0,0,132,254,135,210,198,176,48,8,0,0,0,0,105,84,7,26,145,11,132,247,142,243,156,59,154,165,186,43,225,233,54,67,0,0,0,0,0,0,0,0,0,0,0,0,0,0,0,0,0,0,0,0,0,0,0,0,0,0,0,0,0,0,0,0,0,0,0,0,0,0,0,0,0,0,0,0,0,0
13.41,-376,-101,-2001,113,-14,-13,1,4,48,0,0,0,0,0,159,19,168,6,234,203,46,23,0,0,0,0,106,87,6,30,145,11,137,249,149,239,147,59,146,152,168,11,206,193,1,31,0,0,0,0,0,0,0,0,0,0,0,0,0,0,0,0,0,0,0,0,0,0,0,0,0,0,0,0,0,0,0,0,0,0,0,0,0,0,0,0,0,0,0,0,0,0
13.42,-408,-102,-1960,126,0,-15,3,4,63,0,0,0,0,0,189,56,190,24,37,237,82,51,0,0,0,0,109,82,7,31,145,11,139,250,151,224,125,71,130,137,140,227,182,164,201,244,0,0,0,0,0,0,0,0,0,0,0,0,0,0,0,0,0,0,0,0,0,0,0,0,0,0,0,0,0,0,0,0,0,0,0,0,0,0,0,0,0,0,0,0,0,0
13.43,-402,-148,-1954,132,19,-17,3,4,67,0,0,0,14,0,242,76,208,76,117,1,90,74,0,0,0,0,116,83,6,32,152,11,141,0,154,222,115,67,113,119,123,190,156,107,103,212,0,0,0,0,0,0,0,0,0,0,0,0,0,0,0,0,0,0,0,0,0,0,0,0,0,0,0,0,0,0,0,0,0,0,0,0,0,0,0,0,0,0,0,0,0,0
13.44,-402,-148,-1954,132,19,-17,3,4,67,0,0,0,14,0,242,76,208,76,117,1,90,74,0,0,0,0,116,83,6,32,152,11,141,0,154,222,115,67,113,119,123,190,156,107,103,212,0,0,0,0,0,0,0,0,0,0,0,0,0,0,0,0,0,0,0,0,0,0,0,0,0,0,0,0,0,0,0,0,0,0,0,0,0,0,0,0,0,0,0,0,0,0
13.45,-402,-148,-1954,132,19,-17,3,4,67,0,0,0,14,0,242,76,208,76,117,1,90,74,0,0,0,0,116,83,6,32,152,11,141,0,154,222,115,67,113,119,123,190,156,107,103,212,0,0,0,0,0,0,0,0,0,0,0,0,0,0,0,0,0,0,0,0,0,0,0,0,0,0,0,0,0,0,0,0,0,0,0,0,0,0,0,0,0,0,0,0,0,0
13.46,-402,-148,-1954,132,19,-17,3,4,67,0,0,0,14,0,242,76,208,76,117,1,90,74,0,0,0,0,116,83,6,32,152,11,141,0,154,222,115,67,113,119,123,190,156,107,103,212,0,0,0,0,0,0,0,0,0,0,0,0,0,0,0,0,0,0,0,0,0,0,0,0,0,0,0,0,0,0,0,0,0,0,0,0,0,0,0,0,0,0,0,0,0,0
13.47,-402,-148,-1954,132,19,-17,3,4,67,0,0,0,14,0,242,76,208,76,117,1,90,74,0,0,0,0,116,83,6,32,152,11,141,0,154,222,115,67,113,119,123,190,156,107,103,212,0,0,0,0,0,0,0,0,0,0,0,0,0,0,0,0,0,0,0,0,0,0,0,0,0,0,0,0,0,0,0,0,0,0,0,0,0,0,0,0,0,0,0,0,0,0
13.48,-290,-138,-2074,295,225,-36,72,56,155,134,15,45,57,122,16,197,62,115,182,106,102,90,0,0,0,0,29,163,20,130,142,19,237,159,4,147,184,111,180,143,135,85,239,215,230,69,0,0,0,0,0,0,0,0,0,0,0,0,0,0,0,0,0,0,0,0,0,0,0,0,0,0,0,0,0,0,0,0,0,0,0,0,0,0,0,0,0,0,0,0,0,0
13.49,-335,-234,-2078,324,231,-34,110,66,175,196,20,57,82,207,134,17,96,176,231,144,118,115,0,0,0,0,45,160,23,134,134,21,229,141,250,125,168,71,161,115,45,33,200,110,99,230,0,0,0,0,0,0,0,0,0,0,0,0,0,0,0,0,0,0,0,0,0,0,0,0,0,0,0,0,0,0,0,0,0,0,0,0,0,0,0,0,0,0,0,0,0,0
13.5,-337,-235,-2082,449,276,-97,157,211,102,38,197,166,158,80,36,68,111,169,142,239,174,139,0,0,0,0,188,211,37,152,30,16,101,213,22,72,134,51,64,44,124,116,5,26,47,5,0,0,0,0,0,0,0,0,0,0,0,0,0,0,0,0,0,0,0,0,0,0,0,0,0,0,0,0,0,0,0,0,0,0,0,0,0,0,0,0,0,0,0,0,0,0
13.51,-459,-192,-2109,453,269,-114,194,251,122,90,7,179,193,151,106,131,149,175,151,41,215,149,0,0,0,0,183,206,37,117,253,12,77,149,13,39,91,3,8,7,76,52,0,0,0,0,0,0,0,0,0,0,0,0,0,0,0,0,0,0,0,0,0,0,0,0,0,0,0,0,0,0,0,0,0,0,0,0,0,0,0,0,0,0,0,0,0,0,0,0,0,0
13.52,-459,-192,-2109,453,269,-114,194,251,122,90,7,179,193,151,106,131,149,175,151,41,215,149,0,0,0,0,183,206,37,117,253,12,77,149,13,39,91,3,8,7,76,52,0,0,0,0,0,0,0,0,0,0,0,0,0,0,0,0,0,0,0,0,0,0,0,0,0,0,0,0,0,0,0,0,0,0,0,0,0,0,0,0,0,0,0,0,0,0,0,0,0,0
13.53,-459,-192,-2109,453,269,-114,194,251,122,90,7,179,193,151,106,131,149,175,151,41,215,149,0,0,0,0,183,206,37,117,253,12,77,149,13,39,91,3,8,7,76,52,0,0,0,0,0,0,0,0,0,0,0,0,0,0,0,0,0,0,0,0,0,0,0,0,0,0,0,0,0,0,0,0,0,0,0,0,0,0,0,0,0,0,0,0,0,0,0,0,0,0
13.54,-459,-192,-2109,453,269,-114,194,251,122,90,7,179,193,151,106,131,149,175,151,41,215,149,0,0,0,0,183,206,37,117,253,12,77,149,13,39,91,3,8,7,76,52,0,0,0,0,0,0,0,0,0,0,0,0,0,0,0,0,0,0,0,0,0,0,0,0,0,0,0,0,0,0,0,0,0,0,0,0,0,0,0,0,0,0,0,0,0,0,0,0,0,0
13.55,-368,-168,-2163,457,260,-131,236,18,155,130,33,216,227,172,135,173,205,184,181,86,51,148,0,0,0,0,155,147,34,110,191,7,27,76,0,0,0,0,0,0,14,0,0,0,0,0,0,0,0,0,0,0,0,0,0,0,0,0,0,0,0,0,0,0,0,0,0,0,0,0,0,0,0,0,0,0,0,0,0,0,0,0,0,0,0,0,0,0,0,0,0,0
13.56,-368,-168,-2163,457,260,-131,236,18,155,130,33,216,227,172,135,173,205,184,181,86,51,148,0,0,0,0,155,147,34,110,191,7,27,76,0,0,0,0,0,0,14,0,0,0,0,0,0,0,0,0,0,0,0,0,0,0,0,0,0,0,0,0,0,0,0,0,0,0,0,0,0,0,0,0,0,0,0,0,0,0,0,0,0,0,0,0,0,0,0,0,0,0
13.57,-368,-168,-2163,457,260,-131,236,18,155,130,33,216,227,172,135,173,205,184,181,86,51,148,0,0,0,0,155,147,34,110,191,7,27,76,0,0,0,0,0,0,14,0,0,0,0,0,0,0,0,0,0,0,0,0,0,0,0,0,0,0,0,0,0,0,0,0,0,0,0,0,0,0,0,0,0,0,0,0,0,0,0,0,0,0,0,0,0,0,0,0,0,0
13.58,-368,-168,-2163,457,260,-131,236,18,155,130,33,216,227,172,135,173,205,184,181,86,51,148,0,0,0,0,155,147,34,110,191,7,27,76,0,0,0,0,0,0,14,0,0,0,0,0,0,0,0,0,0,0,0,0,0,0,0,0,0,0,0,0,0,0,0,0,0,0,0,0,0,0,0,0,0,0,0,0,0,0,0,0,0,0,0,0,0,0,0,0,0,0
13.59,-368,-168,-2163,457,260,-131,236,18,155,130,33,216,227,172,135,173,205,184,181,86,51,148,0,0,0,0,155,147,34,110,191,7,27,76,0,0,0,0,0,0,14,0,0,0,0,0,0,0,0,0,0,0,0,0,0,0,0,0,0,0,0,0,0,0,0,0,0,0,0,0,0,0,0,0,0,0,0,0,0,0,0,0,0,0,0,0,0,0,0,0,0,0
13.6,-368,-168,-2163,457,260,-131,236,18,155,130,33,216,227,172,135,173,205,184,181,86,51,148,0,0,0,0,155,147,34,110,191,7,27,76,0,0,0,0,0,0,14,0,0,0,0,0,0,0,0,0,0,0,0,0,0,0,0,0,0,0,0,0,0,0,0,0,0,0,0,0,0,0,0,0,0,0,0,0,0,0,0,0,0,0,0,0,0,0,0,0,0,0
13.61,-368,-168,-2163,457,260,-131,236,18,155,130,33,216,227,172,135,173,205,184,181,86,51,148,0,0,0,0,155,147,34,110,191,7,27,76,0,0,0,0,0,0,14,0,0,0,0,0,0,0,0,0,0,0,0,0,0,0,0,0,0,0,0,0,0,0,0,0,0,0,0,0,0,0,0,0,0,0,0,0,0,0,0,0,0,0,0,0,0,0,0,0,0,0
13.62,-368,-168,-2163,457,260,-131,236,18,155,130,33,216,227,172,135,173,205,184,181,86,51,148,0,0,0,0,155,147,34,110,191,7,27,76,0,0,0,0,0,0,14,0,0,0,0,0,0,0,0,0,0,0,0,0,0,0,0,0,0,0,0,0,0,0,0,0,0,0,0,0,0,0,0,0,0,0,0,0,0,0,0,0,0,0,0,0,0,0,0,0,0,0
13.63,-368,-168,-2163,457,260,-131,236,18,155,130,33,216,227,172,135,173,205,184,181,86,51,148,0,0,0,0,155,147,34,110,191,7,27,76,0,0,0,0,0,0,14,0,0,0,0,0,0,0,0,0,0,0,0,0,0,0,0,0,0,0,0,0,0,0,0,0,0,0,0,0,0,0,0,0,0,0,0,0,0,0,0,0,0,0,0,0,0,0,0,0,0,0
13.64,-368,-168,-2163,457,260,-131,236,18,155,130,33,216,227,172,135,173,205,184,181,86,51,148,0,0,0,0,155,147,34,110,191,7,27,76,0,0,0,0,0,0,14,0,0,0,0,0,0,0,0,0,0,0,0,0,0,0,0,0,0,0,0,0,0,0,0,0,0,0,0,0,0,0,0,0,0,0,0,0,0,0,0,0,0,0,0,0,0,0,0,0,0,0
13.65,-368,-168,-2163,457,260,-131,236,18,155,130,33,216,227,172,135,173,205,184,181,86,51,148,0,0,0,0,155,147,34,110,191,7,27,76,0,0,0,0,0,0,14,0,0,0,0,0,0,0,0,0,0,0,0,0,0,0,0,0,0,0,0,0,0,0,0,0,0,0,0,0,0,0,0,0,0,0,0,0,0,0,0,0,0,0,0,0,0,0,0,0,0,0
13.66,-368,-168,-2163,457,260,-131,236,18,155,130,33,216,227,172,135,173,205,184,181,86,51,148,0,0,0,0,155,147,34,110,191,7,27,76,0,0,0,0,0,0,14,0,0,0,0,0,0,0,0,0,0,0,0,0,0,0,0,0,0,0,0,0,0,0,0,0,0,0,0,0,0,0,0,0,0,0,0,0,0,0,0,0,0,0,0,0,0,0,0,0,0,0
13.67,-368,-168,-2163,457,260,-131,236,18,155,130,33,216,227,172,135,173,205,184,181,86,51,148,0,0,0,0,155,147,34,110,191,7,27,76,0,0,0,0,0,0,14,0,0,0,0,0,0,0,0,0,0,0,0,0,0,0,0,0,0,0,0,0,0,0,0,0,0,0,0,0,0,0,0,0,0,0,0,0,0,0,0,0,0,0,0,0,0,0,0,0,0,0
13.68,-368,-168,-2163,457,260,-131,236,18,155,130,33,216,227,172,135,173,205,184,181,86,51,148,0,0,0,0,155,147,34,110,191,7,27,76,0,0,0,0,0,0,14,0,0,0,0,0,0,0,0,0,0,0,0,0,0,0,0,0,0,0,0,0,0,0,0,0,0,0,0,0,0,0,0,0,0,0,0,0,0,0,0,0,0,0,0,0,0,0,0,0,0,0
13.69,-368,-168,-2163,457,260,-131,236,18,155,130,33,216,227,172,135,173,205,184,181,86,51,148,0,0,0,0,155,147,34,110,191,7,27,76,0,0,0,0,0,0,14,0,0,0,0,0,0,0,0,0,0,0,0,0,0,0,0,0,0,0,0,0,0,0,0,0,0,0,0,0,0,0,0,0,0,0,0,0,0,0,0,0,0,0,0,0,0,0,0,0,0,0
13.7,-368,-168,-2163,457,260,-131,236,18,155,130,33,216,227,172,135,173,205,184,181,86,51,148,0,0,0,0,155,147,34,110,191,7,27,76,0,0,0,0,0,0,14,0,0,0,0,0,0,0,0,0,0,0,0,0,0,0,0,0,0,0,0,0,0,0,0,0,0,0,0,0,0,0,0,0,0,0,0,0,0,0,0,0,0,0,0,0,0,0,0,0,0,0
13.71,-368,-168,-2163,457,260,-131,236,18,155,130,33,216,227,172,135,173,205,184,181,86,51,148,0,0,0,0,155,147,34,110,191,7,27,76,0,0,0,0,0,0,14,0,0,0,0,0,0,0,0,0,0,0,0,0,0,0,0,0,0,0,0,0,0,0,0,0,0,0,0,0,0,0,0,0,0,0,0,0,0,0,0,0,0,0,0,0,0,0,0,0,0,0
13.72,-368,-168,-2163,457,260,-131,236,18,155,130,33,216,227,172,135,173,205,184,181,86,51,148,0,0,0,0,155,147,34,110,191,7,27,76,0,0,0,0,0,0,14,0,0,0,0,0,0,0,0,0,0,0,0,0,0,0,0,0,0,0,0,0,0,0,0,0,0,0,0,0,0,0,0,0,0,0,0,0,0,0,0,0,0,0,0,0,0,0,0,0,0,0
13.73,-368,-168,-2163,457,260,-131,236,18,155,130,33,216,227,172,135,173,205,184,181,86,51,148,0,0,0,0,155,147,34,110,191,7,27,76,0,0,0,0,0,0,14,0,0,0,0,0,0,0,0,0,0,0,0,0,0,0,0,0,0,0,0,0,0,0,0,0,0,0,0,0,0,0,0,0,0,0,0,0,0,0,0,0,0,0,0,0,0,0,0,0,0,0
13.74,-368,-168,-2163,457,260,-131,236,18,155,130,33,216,227,172,135,173,205,184,181,86,51,148,0,0,0,0,155,147,34,110,191,7,27,76,0,0,0,0,0,0,14,0,0,0,0,0,0,0,0,0,0,0,0,0,0,0,0,0,0,0,0,0,0,0,0,0,0,0,0,0,0,0,0,0,0,0,0,0,0,0,0,0,0,0,0,0,0,0,0,0,0,0
13.75,-368,-168,-2163,457,260,-131,236,18,155,130,33,216,227,172,135,173,205,184,181,86,51,148,0,0,0,0,155,147,34,110,191,7,27,76,0,0,0,0,0,0,14,0,0,0,0,0,0,0,0,0,0,0,0,0,0,0,0,0,0,0,0,0,0,0,0,0,0,0,0,0,0,0,0,0,0,0,0,0,0,0,0,0,0,0,0,0,0,0,0,0,0,0
13.76,-368,-168,-2163,457,260,-131,236,18,155,130,33,216,227,172,135,173,205,184,181,86,51,148,0,0,0,0,155,147,34,110,191,7,27,76,0,0,0,0,0,0,14,0,0,0,0,0,0,0,0,0,0,0,0,0,0,0,0,0,0,0,0,0,0,0,0,0,0,0,0,0,0,0,0,0,0,0,0,0,0,0,0,0,0,0,0,0,0,0,0,0,0,0
13.77,-368,-168,-2163,457,260,-131,236,18,155,130,33,216,227,172,135,173,205,184,181,86,51,148,0,0,0,0,155,147,34,110,191,7,27,76,0,0,0,0,0,0,14,0,0,0,0,0,0,0,0,0,0,0,0,0,0,0,0,0,0,0,0,0,0,0,0,0,0,0,0,0,0,0,0,0,0,0,0,0,0,0,0,0,0,0,0,0,0,0,0,0,0,0
13.78,-192,-135,-2198,471,261,-137,251,53,182,0,43,237,245,192,140,184,238,174,170,103,91,144,0,0,0,0,136,124,29,105,89,1,8,12,0,0,0,0,0,0,0,0,0,0,0,0,0,0,0,0,0,0,0,0,0,0,0,0,0,0,0,0,0,0,0,0,0,0,0,0,0,0,0,0,0,0,0,0,0,0,0,0,0,0,0,0,0,0,0,0,0,0
13.79,-315,-1452,-3288,1494,11,-252,57,127,56,0,102,35,25,239,145,11,241,136,120,156,72,37,0,0,0,0,137,65,8,37,0,0,0,0,0,0,0,0,0,0,0,0,0,0,0,0,0,0,0,0,0,0,0,0,0,0,0,0,0,0,0,0,0,0,0,0,0,0,0,0,0,0,0,0,0,0,0,0,0,0,0,0,0,0,0,0,0,0,0,0,0,0
13.8,-416,145,-3256,1801,72,-300,56,132,90,40,105,25,238,242,139,35,180,130,135,175,153,26,0,0,0,0,100,51,6,28,0,0,0,0,0,0,0,0,0,0,0,0,0,0,0,0,0,0,0,0,0,0,0,0,0,0,0,0,0,0,0,0,0,0,0,0,0,0,0,0,0,0,0,0,0,0,0,0,0,0,0,0,0,0,0,0,0,0,0,0,0,0
13.81,-675,-17,-3357,2060,100,-310,64,132,116,0,102,23,235,251,139,51,115,123,134,163,207,3,0,0,0,0,97,43,6,25,0,0,0,0,0,0,0,0,0,0,0,0,0,0,0,0,0,0,0,0,0,0,0,0,0,0,0,0,0,0,0,0,0,0,0,0,0,0,0,0,0,0,0,0,0,0,0,0,0,0,0,0,0,0,0,0,0,0,0,0,0,0
13.82,-864,-124,-3300,2368,83,-377,73,149,191,83,83,9,215,4,164,102,35,125,130,128,44,229,0,0,0,0,77,214,3,17,0,0,0,0,0,0,0,0,0,0,0,0,0,0,0,0,0,0,0,0,0,0,0,0,0,0,0,0,0,0,0,0,0,0,0,0,0,0,0,0,0,0,0,0,0,0,0,0,0,0,0,0,0,0,0,0,0,0,0,0,0,0
13.83,-864,-124,-3300,2368,83,-377,73,149,191,83,83,9,215,4,164,102,35,125,130,128,44,229,0,0,0,0,77,214,3,17,0,0,0,0,0,0,0,0,0,0,0,0,0,0,0,0,0,0,0,0,0,0,0,0,0,0,0,0,0,0,0,0,0,0,0,0,0,0,0,0,0,0,0,0,0,0,0,0,0,0,0,0,0,0,0,0,0,0,0,0,0,0
13.84,-864,-124,-3300,2368,83,-377,73,149,191,83,83,9,215,4,164,102,35,125,130,128,44,229,0,0,0,0,77,214,3,17,0,0,0,0,0,0,0,0,0,0,0,0,0,0,0,0,0,0,0,0,0,0,0,0,0,0,0,0,0,0,0,0,0,0,0,0,0,0,0,0,0,0,0,0,0,0,0,0,0,0,0,0,0,0,0,0,0,0,0,0,0,0
13.85,-186,489,-1506,-1724,-1328,1134,1,0,0,0,0,2,2,2,4,0,1,0,4,0,2,0,2,2,3,0,1,1,0,3,3,0,2,1,2,1,1,0,2,2,0,2,2,0,1,2,0,0,0,0,0,0,0,0,0,0,0,0,0,0,0,0,0,0,0,0,0,0,0,0,0,0,0,0,0,0,0,0,0,0,0,0,0,0,0,0,0,0,0,0,0,0
13.86,-184,442,-1593,-1885,-1412,1293,4,2,2,0,5,1,2,11,3,2,2,14,1,3,3,16,1,6,1,0,3,1,19,3,2,7,0,0,1,1,1,4,2,2,4,4,0,4,2,2,0,0,0,0,0,0,0,0,0,0,0,0,0,0,0,0,0,0,0,0,0,0,0,0,0,0,0,0,0,0,0,0,0,0,0,0,0,0,0,0,0,0,0,0,0,0
13.87,-156,390,-1742,-2052,-1485,1364,2,3,2,0,1,1,1,11,2,2,2,13,0,0,1,0,2,2,2,0,1,4,0,3,4,0,1,2,3,3,3,4,2,3,0,3,2,0,2,2,0,0,0,0,0,0,0,0,0,0,0,0,0,0,0,0,0,0,0,0,0,0,0,0,0,0,0,0,0,0,0,0,0,0,0,0,0,0,0,0,0,0,0,0,0,0
13.88,-137,339,-1875,-2389,-1533,1305,1,2,2,0,1,1,1,10,2,2,1,13,1,2,2,0,1,2,2,0,1,1,1,2,2,0,2,2,2,2,2,0,1,2,0,3,1,0,1,2,0,0,0,0,0,0,0,0,0,0,0,0,0,0,0,0,0,0,0,0,0,0,0,0,0,0,0,0,0,0,0,0,0,0,0,0,0,0,0,0,0,0,0,0,0,0
13.89,-137,339,-1875,-2389,-1533,1305,1,2,2,0,1,1,1,10,2,2,1,13,1,2,2,0,1,2,2,0,1,1,1,2,2,0,2,2,2,2,2,0,1,2,0,3,1,0,1,2,0,0,0,0,0,0,0,0,0,0,0,0,0,0,0,0,0,0,0,0,0,0,0,0,0,0,0,0,0,0,0,0,0,0,0,0,0,0,0,0,0,0,0,0,0,0
13.9,-137,339,-1875,-2389,-1533,1305,1,2,2,0,1,1,1,10,2,2,1,13,1,2,2,0,1,2,2,0,1,1,1,2,2,0,2,2,2,2,2,0,1,2,0,3,1,0,1,2,0,0,0,0,0,0,0,0,0,0,0,0,0,0,0,0,0,0,0,0,0,0,0,0,0,0,0,0,0,0,0,0,0,0,0,0,0,0,0,0,0,0,0,0,0,0
13.91,-137,339,-1875,-2389,-1533,1305,1,2,2,0,1,1,1,10,2,2,1,13,1,2,2,0,1,2,2,0,1,1,1,2,2,0,2,2,2,2,2,0,1,2,0,3,1,0,1,2,0,0,0,0,0,0,0,0,0,0,0,0,0,0,0,0,0,0,0,0,0,0,0,0,0,0,0,0,0,0,0,0,0,0,0,0,0,0,0,0,0,0,0,0,0,0
13.92,-137,339,-1875,-2389,-1533,1305,1,2,2,0,1,1,1,10,2,2,1,13,1,2,2,0,1,2,2,0,1,1,1,2,2,0,2,2,2,2,2,0,1,2,0,3,1,0,1,2,0,0,0,0,0,0,0,0,0,0,0,0,0,0,0,0,0,0,0,0,0,0,0,0,0,0,0,0,0,0,0,0,0,0,0,0,0,0,0,0,0,0,0,0,0,0
13.93,-111,248,-1993,-2560,-1517,1199,2,2,3,0,2,0,2,11,2,1,3,14,2,2,2,14,1,1,2,0,2,2,17,2,1,6,2,1,2,1,2,4,2,3,3,2,2,3,1,2,0,0,0,0,0,0,0,0,0,0,0,0,0,0,0,0,0,0,0,0,0,0,0,0,0,0,0,0,0,0,0,0,0,0,0,0,0,0,0,0,0,0,0,0,0,0
13.94,116,55,-2315,-3050,-1344,870,2,2,1,0,3,0,2,0,3,2,0,0,2,0,1,0,1,3,2,0,4,2,0,1,1,0,0,2,2,3,3,0,0,1,0,1,2,0,3,2,0,0,0,0,0,0,0,0,0,0,0,0,0,0,0,0,0,0,0,0,0,0,0,0,0,0,0,0,0,0,0,0,0,0,0,0,0,0,0,0,0,0,0,0,0,0
13.95,108,-13,-2414,-3169,-1246,844,2,2,2,0,0,3,2,0,2,2,1,0,2,2,2,0,2,0,0,0,2,1,1,2,1,0,1,2,2,2,2,0,2,2,0,1,2,0,1,1,0,0,0,0,0,0,0,0,0,0,0,0,0,0,0,0,0,0,0,0,0,0,0,0,0,0,0,0,0,0,0,0,0,0,0,0,0,0,0,0,0,0,0,0,0,0
13.96,64,-22,-2514,-3258,-1171,870,2,2,0,0,1,1,1,11,1,1,0,14,1,0,2,14,2,1,1,0,1,2,15,3,1,7,5,4,0,3,1,3,2,0,2,0,2,2,2,1,0,0,0,0,0,0,0,0,0,0,0,0,0,0,0,0,0,0,0,0,0,0,0,0,0,0,0,0,0,0,0,0,0,0,0,0,0,0,0,0,0,0,0,0,0,0
13.97,64,-22,-2514,-3258,-1171,870,2,2,0,0,1,1,1,11,1,1,0,14,1,0,2,14,2,1,1,0,1,2,15,3,1,7,5,4,0,3,1,3,2,0,2,0,2,2,2,1,0,0,0,0,0,0,0,0,0,0,0,0,0,0,0,0,0,0,0,0,0,0,0,0,0,0,0,0,0,0,0,0,0,0,0,0,0,0,0,0,0,0,0,0,0,0
13.98,64,-22,-2514,-3258,-1171,870,2,2,0,0,1,1,1,11,1,1,0,14,1,0,2,14,2,1,1,0,1,2,15,3,1,7,5,4,0,3,1,3,2,0,2,0,2,2,2,1,0,0,0,0,0,0,0,0,0,0,0,0,0,0,0,0,0,0,0,0,0,0,0,0,0,0,0,0,0,0,0,0,0,0,0,0,0,0,0,0,0,0,0,0,0,0
13.99,64,-22,-2514,-3258,-1171,870,2,2,0,0,1,1,1,11,1,1,0,14,1,0,2,14,2,1,1,0,1,2,15,3,1,7,5,4,0,3,1,3,2,0,2,0,2,2,2,1,0,0,0,0,0,0,0,0,0,0,0,0,0,0,0,0,0,0,0,0,0,0,0,0,0,0,0,0,0,0,0,0,0,0,0,0,0,0,0,0,0,0,0,0,0,0
14,-10,-57,-2633,-3327,-1147,933,1,3,0,0,2,1,0,9,0,1,0,14,1,4,2,2,3,1,3,0,0,0,0,2,3,2,2,0,3,2,3,6,0,1,0,1,0,1,2,4,0,0,0,0,0,0,0,0,0,0,0,0,0,0,0,0,0,0,0,0,0,0,0,0,0,0,0,0,0,0,0,0,0,0,0,0,0,0,0,0,0,0,0,0,0,0
14.01,-81,-96,-2751,-3383,-1175,1022,2,0,4,0,3,0,0,10,1,0,4,13,0,2,2,0,2,4,4,0,2,2,0,4,4,0,2,1,2,0,2,0,1,0,0,0,3,0,2,1,0,0,0,0,0,0,0,0,0,0,0,0,0,0,0,0,0,0,0,0,0,0,0,0,0,0,0,0,0,0,0,0,0,0,0,0,0,0,0,0,0,0,0,0,0,0
14.02,-160,-415,-3202,-3603,-1259,1542,1,0,4,0,0,2,0,0,2,1,0,1,0,5,1,2,3,4,2,0,3,2,2,4,3,0,5,0,2,2,5,0,0,1,0,4,1,0,0,3,0,0,0,0,0,0,0,0,0,0,0,0,0,0,0,0,0,0,0,0,0,0,0,0,0,0,0,0,0,0,0,0,0,0,0,0,0,0,0,0,0,0,0,0,0,0
14.03,-191,-524,-3328,-3671,-1228,1697,1,2,0,0,2,4,0,12,3,2,0,16,3,0,0,17,1,3,3,0,5,0,15,0,0,2,1,0,4,0,3,9,3,4,4,0,0,2,0,5,0,0,0,0,0,0,0,0,0,0,0,0,0,0,0,0,0,0,0,0,0,0,0,0,0,0,0,0,0,0,0,0,0,0,0,0,0,0,0,0,0,0,0,0,0,0
14.04,-191,-524,-3328,-3671,-1228,1697,1,2,0,0,2,4,0,12,3,2,0,16,3,0,0,17,1,3,3,0,5,0,15,0,0,2,1,0,4,0,3,9,3,4,4,0,0,2,0,5,0,0,0,0,0,0,0,0,0,0,0,0,0,0,0,0,0,0,0,0,0,0,0,0,0,0,0,0,0,0,0,0,0,0,0,0,0,0,0,0,0,0,0,0,0,0
14.05,-191,-524,-3328,-3671,-1228,1697,1,2,0,0,2,4,0,12,3,2,0,16,3,0,0,17,1,3,3,0,5,0,15,0,0,2,1,0,4,0,3,9,3,4,4,0,0,2,0,5,0,0,0,0,0,0,0,0,0,0,0,0,0,0,0,0,0,0,0,0,0,0,0,0,0,0,0,0,0,0,0,0,0,0,0,0,0,0,0,0,0,0,0,0,0,0
14.06,-191,-524,-3328,-3671,-1228,1697,1,2,0,0,2,4,0,12,3,2,0,16,3,0,0,17,1,3,3,0,5,0,15,0,0,2,1,0,4,0,3,9,3,4,4,0,0,2,0,5,0,0,0,0,0,0,0,0,0,0,0,0,0,0,0,0,0,0,0,0,0,0,0,0,0,0,0,0,0,0,0,0,0,0,0,0,0,0,0,0,0,0,0,0,0,0
14.07,-191,-524,-3328,-3671,-1228,1697,1,2,0,0,2,4,0,12,3,2,0,16,3,0,0,17,1,3,3,0,5,0,15,0,0,2,1,0,4,0,3,9,3,4,4,0,0,2,0,5,0,0,0,0,0,0,0,0,0,0,0,0,0,0,0,0,0,0,0,0,0,0,0,0,0,0,0,0,0,0,0,0,0,0,0,0,0,0,0,0,0,0,0,0,0,0
14.08,-201,-662,-3439,-3725,-1191,1854,4,4,0,0,4,0,2,11,4,2,0,17,1,1,2,1,0,4,2,0,4,3,0,1,0,1,0,0,0,2,2,0,5,4,0,0,2,0,3,3,0,0,0,0,0,0,0,0,0,0,0,0,0,0,0,0,0,0,0,0,0,0,0,0,0,0,0,0,0,0,0,0,0,0,0,0,0,0,0,0,0,0,0,0,0,0
14.09,-232,-1004,-3542,-3755,-1140,2013,0,0,2,0,4,3,0,10,0,0,1,15,1,0,0,1,0,2,2,0,0,2,0,1,2,0,3,1,1,1,2,0,2,1,0,2,2,0,1,1,0,0,0,0,0,0,0,0,0,0,0,0,0,0,0,0,0,0,0,0,0,0,0,0,0,0,0,0,0,0,0,0,0,0,0,0,0,0,0,0,0,0,0,0,0,0
14.1,194,-2721,-3570,-3794,-1302,2304,0,7,0,0,0,1,0,11,0,7,1,4,0,6,0,4,6,0,2,2,0,3,0,2,1,0,3,7,0,0,2,2,3,1,2,1,2,0,1,0,0,0,0,0,0,0,0,0,0,0,0,0,0,0,0,0,0,0,0,0,0,0,0,0,0,0,0,0,0,0,0,0,0,0,0,0,0,0,0,0,0,0,0,0,0,0
14.11,690,-3254,-3398,-3682,-1538,2147,3,0,0,0,5,0,1,0,3,2,2,13,1,2,2,15,0,3,1,0,4,1,18,0,2,6,1,3,2,3,0,5,2,1,3,2,1,2,1,2,0,0,0,0,0,0,0,0,0,0,0,0,0,0,0,0,0,0,0,0,0,0,0,0,0,0,0,0,0,0,0,0,0,0,0,0,0,0,0,0,0,0,0,0,0,0
14.12,1025,-3665,-2991,-3474,-1589,1950,1,2,2,0,1,2,2,10,0,2,1,13,1,7,1,0,1,2,1,0,1,0,15,0,0,5,1,1,5,2,1,0,2,1,5,5,3,1,0,4,0,0,0,0,0,0,0,0,0,0,0,0,0,0,0,0,0,0,0,0,0,0,0,0,0,0,0,0,0,0,0,0,0,0,0,0,0,0,0,0,0,0,0,0,0,0
14.13,1025,-3665,-2991,-3474,-1589,1950,1,2,2,0,1,2,2,10,0,2,1,13,1,7,1,0,1,2,1,0,1,0,15,0,0,5,1,1,5,2,1,0,2,1,5,5,3,1,0,4,0,0,0,0,0,0,0,0,0,0,0,0,0,0,0,0,0,0,0,0,0,0,0,0,0,0,0,0,0,0,0,0,0,0,0,0,0,0,0,0,0,0,0,0,0,0
14.14,1025,-3665,-2991,-3474,-1589,1950,1,2,2,0,1,2,2,10,0,2,1,13,1,7,1,0,1,2,1,0,1,0,15,0,0,5,1,1,5,2,1,0,2,1,5,5,3,1,0,4,0,0,0,0,0,0,0,0,0,0,0,0,0,0,0,0,0,0,0,0,0,0,0,0,0,0,0,0,0,0,0,0,0,0,0,0,0,0,0,0,0,0,0,0,0,0
14.15,942,-3949,-2586,-3188,-1308,1775,2,1,1,0,1,4,2,11,2,1,1,15,4,2,2,18,0,1,1,0,2,2,16,0,2,6,0,4,1,0,0,0,1,3,1,1,3,1,1,5,0,0,0,0,0,0,0,0,0,0,0,0,0,0,0,0,0,0,0,0,0,0,0,0,0,0,0,0,0,0,0,0,0,0,0,0,0,0,0,0,0,0,0,0,0,0
14.16,42,-6213,-2176,36,738,508,0,0,3,0,1,2,1,1,3,10,1,1,1,3,0,13,1,0,4,0,0,4,0,7,0,0,2,8,1,5,3,2,9,0,0,3,2,1,4,4,0,0,0,0,0,0,0,0,0,0,0,0,0,0,0,0,0,0,0,0,0,0,0,0,0,0,0,0,0,0,0,0,0,0,0,0,0,0,0,0,0,0,0,0,0,0
14.17,504,-6365,-2056,1024,496,412,3,5,5,0,0,0,4,12,2,2,5,15,1,3,2,15,3,5,2,0,5,1,19,2,3,7,0,2,4,0,4,5,4,4,5,6,3,4,7,8,0,0,0,0,0,0,0,0,0,0,0,0,0,0,0,0,0,0,0,0,0,0,0,0,0,0,0,0,0,0,0,0,0,0,0,0,0,0,0,0,0,0,0,0,0,0
14.18,-656,1502,-1811,1900,90,343,2,3,3,0,0,0,3,15,0,4,1,17,2,4,0,4,1,5,0,0,4,5,3,1,2,0,2,4,0,8,0,8,1,6,0,1,6,156,110,4,0,0,0,0,0,0,0,0,0,0,0,0,0,0,0,0,0,0,0,0,0,0,0,0,0,0,0,0,0,0,0,0,0,0,0,0,0,0,0,0,0,0,0,0,0,0
14.19,-656,1502,-1811,1900,90,343,2,3,3,0,0,0,3,15,0,4,1,17,2,4,0,4,1,5,0,0,4,5,3,1,2,0,2,4,0,8,0,8,1,6,0,1,6,156,110,4,0,0,0,0,0,0,0,0,0,0,0,0,0,0,0,0,0,0,0,0,0,0,0,0,0,0,0,0,0,0,0,0,0,0,0,0,0,0,0,0,0,0,0,0,0,0
14.2,-656,1502,-1811,1900,90,343,2,3,3,0,0,0,3,15,0,4,1,17,2,4,0,4,1,5,0,0,4,5,3,1,2,0,2,4,0,8,0,8,1,6,0,1,6,156,110,4,0,0,0,0,0,0,0,0,0,0,0,0,0,0,0,0,0,0,0,0,0,0,0,0,0,0,0,0,0,0,0,0,0,0,0,0,0,0,0,0,0,0,0,0,0,0
14.21,-656,1502,-1811,1900,90,343,2,3,3,0,0,0,3,15,0,4,1,17,2,4,0,4,1,5,0,0,4,5,3,1,2,0,2,4,0,8,0,8,1,6,0,1,6,156,110,4,0,0,0,0,0,0,0,0,0,0,0,0,0,0,0,0,0,0,0,0,0,0,0,0,0,0,0,0,0,0,0,0,0,0,0,0,0,0,0,0,0,0,0,0,0,0
14.22,-656,1502,-1811,1900,90,343,2,3,3,0,0,0,3,15,0,4,1,17,2,4,0,4,1,5,0,0,4,5,3,1,2,0,2,4,0,8,0,8,1,6,0,1,6,156,110,4,0,0,0,0,0,0,0,0,0,0,0,0,0,0,0,0,0,0,0,0,0,0,0,0,0,0,0,0,0,0,0,0,0,0,0,0,0,0,0,0,0,0,0,0,0,0
14.23,-183,2129,-1777,2354,25,237,0,0,3,0,0,0,4,0,0,0,2,0,0,1,2,0,0,0,2,0,0,3,0,0,2,0,0,1,0,0,3,0,5,4,123,91,6,179,156,157,0,0,0,0,0,0,0,0,0,0,0,0,0,0,0,0,0,0,0,0,0,0,0,0,0,0,0,0,0,0,0,0,0,0,0,0,0,0,0,0,0,0,0,0,0,0
14.24,-543,-272,-2846,3953,353,-629,0,0,0,0,0,0,0,0,0,0,0,0,0,0,0,0,0,0,0,0,0,0,0,0,0,0,0,0,0,0,0,0,34,27,73,97,154,109,97,128,0,0,0,0,0,0,0,0,0,0,0,0,0,0,0,0,0,0,0,0,0,0,0,0,0,0,0,0,0,0,0,0,0,0,0,0,0,0,0,0,0,0,0,0,0,0
14.25,-543,-272,-2846,3953,353,-629,0,0,0,0,0,0,0,0,0,0,0,0,0,0,0,0,0,0,0,0,0,0,0,0,0,0,0,0,0,0,0,0,34,27,73,97,154,109,97,128,0,0,0,0,0,0,0,0,0,0,0,0,0,0,0,0,0,0,0,0,0,0,0,0,0,0,0,0,0,0,0,0,0,0,0,0,0,0,0,0,0,0,0,0,0,0
14.26,-543,-272,-2846,3953,353,-629,0,0,0,0,0,0,0,0,0,0,0,0,0,0,0,0,0,0,0,0,0,0,0,0,0,0,0,0,0,0,0,0,34,27,73,97,154,109,97,128,0,0,0,0,0,0,0,0,0,0,0,0,0,0,0,0,0,0,0,0,0,0,0,0,0,0,0,0,0,0,0,0,0,0,0,0,0,0,0,0,0,0,0,0,0,0
14.27,-543,-272,-2846,3953,353,-629,0,0,0,0,0,0,0,0,0,0,0,0,0,0,0,0,0,0,0,0,0,0,0,0,0,0,0,0,0,0,0,0,34,27,73,97,154,109,97,128,0,0,0,0,0,0,0,0,0,0,0,0,0,0,0,0,0,0,0,0,0,0,0,0,0,0,0,0,0,0,0,0,0,0,0,0,0,0,0,0,0,0,0,0,0,0
14.28,-543,-272,-2846,3953,353,-629,0,0,0,0,0,0,0,0,0,0,0,0,0,0,0,0,0,0,0,0,0,0,0,0,0,0,0,0,0,0,0,0,34,27,73,97,154,109,97,128,0,0,0,0,0,0,0,0,0,0,0,0,0,0,0,0,0,0,0,0,0,0,0,0,0,0,0,0,0,0,0,0,0,0,0,0,0,0,0,0,0,0,0,0,0,0
14.29,-543,-272,-2846,3953,353,-629,0,0,0,0,0,0,0,0,0,0,0,0,0,0,0,0,0,0,0,0,0,0,0,0,0,0,0,0,0,0,0,0,34,27,73,97,154,109,97,128,0,0,0,0,0,0,0,0,0,0,0,0,0,0,0,0,0,0,0,0,0,0,0,0,0,0,0,0,0,0,0,0,0,0,0,0,0,0,0,0,0,0,0,0,0,0
14.3,-515,-527,-3368,3605,145,-454,0,0,0,0,0,0,0,0,0,0,0,0,0,0,0,0,0,0,0,0,0,180,0,0,0,0,0,0,0,0,0,0,200,187,139,212,161,49,239,235,0,0,0,0,0,0,0,0,0,0,0,0,0,0,0,0,0,0,0,0,0,0,0,0,0,0,0,0,0,0,0,0,0,0,0,0,0,0,0,0,0,0,0,0,0,0
14.31,-277,-693,-3140,3028,-177,-200,0,0,0,0,0,0,0,0,0,0,0,0,0,0,0,0,0,0,0,0,0,232,0,1,0,0,0,0,2,2,219,0,19,175,79,8,3,111,194,166,0,0,0,0,0,0,0,0,0,0,0,0,0,0,0,0,0,0,0,0,0,0,0,0,0,0,0,0,0,0,0,0,0,0,0,0,0,0,0,0,0,0,0,0,0,0
14.32,-17,-73,-2809,2590,-394,-99,0,0,0,0,0,0,0,0,0,0,0,0,2,166,1,0,0,0,0,0,1,4,0,1,1,0,1,113,4,3,150,1,205,218,149,63,29,41,135,207,0,0,0,0,0,0,0,0,0,0,0,0,0,0,0,0,0,0,0,0,0,0,0,0,0,0,0,0,0,0,0,0,0,0,0,0,0,0,0,0,0,0,0,0,0,0
14.33,384,-530,-2264,2174,-385,-87,0,0,0,0,0,0,0,0,0,0,0,0,3,190,182,2,0,0,0,0,3,103,0,2,114,2,3,173,8,113,199,78,115,27,183,163,49,189,30,111,0,0,0,0,0,0,0,0,0,0,0,0,0,0,0,0,0,0,0,0,0,0,0,0,0,0,0,0,0,0,0,0,0,0,0,0,0,0,0,0,0,0,0,0,0,0
14.34,-325,-175,-1951,573,-102,21,0,0,0,0,0,0,0,0,1,90,0,0,9,28,60,7,0,0,0,0,4,241,2,4,155,6,8,186,13,202,32,185,248,90,195,206,151,60,222,215,0,0,0,0,0,0,0,0,0,0,0,0,0,0,0,0,0,0,0,0,0,0,0,0,0,0,0,0,0,0,0,0,0,0,0,0,0,0,0,0,0,0,0,0,0,0
14.35,-325,-175,-1951,573,-102,21,0,0,0,0,0,0,0,0,1,90,0,0,9,28,60,7,0,0,0,0,4,241,2,4,155,6,8,186,13,202,32,185,248,90,195,206,151,60,222,215,0,0,0,0,0,0,0,0,0,0,0,0,0,0,0,0,0,0,0,0,0,0,0,0,0,0,0,0,0,0,0,0,0,0,0,0,0,0,0,0,0,0,0,0,0,0
14.36,-325,-175,-1951,573,-102,21,0,0,0,0,0,0,0,0,1,90,0,0,9,28,60,7,0,0,0,0,4,241,2,4,155,6,8,186,13,202,32,185,248,90,195,206,151,60,222,215,0,0,0,0,0,0,0,0,0,0,0,0,0,0,0,0,0,0,0,0,0,0,0,0,0,0,0,0,0,0,0,0,0,0,0,0,0,0,0,0,0,0,0,0,0,0
14.37,-325,-175,-1951,573,-102,21,0,0,0,0,0,0,0,0,1,90,0,0,9,28,60,7,0,0,0,0,4,241,2,4,155,6,8,186,13,202,32,185,248,90,195,206,151,60,222,215,0,0,0,0,0,0,0,0,0,0,0,0,0,0,0,0,0,0,0,0,0,0,0,0,0,0,0,0,0,0,0,0,0,0,0,0,0,0,0,0,0,0,0,0,0,0
14.38,-482,-133,-1930,397,-125,31,0,0,0,0,0,0,0,0,1,94,1,0,42,37,72,8,0,0,0,0,10,17,3,4,238,7,10,213,14,210,0,187,1,57,190,197,94,57,199,163,0,0,0,0,0,0,0,0,0,0,0,0,0,0,0,0,0,0,0,0,0,0,0,0,0,0,0,0,0,0,0,0,0,0,0,0,0,0,0,0,0,0,0,0,0,0
14.39,-382,-124,-1983,-24,-98,24,0,0,0,0,0,0,0,0,2,119,24,0,50,47,90,9,0,0,0,0,20,17,3,5,76,9,11,252,16,82,226,223,5,74,169,201,237,43,183,209,0,0,0,0,0,0,0,0,0,0,0,0,0,0,0,0,0,0,0,0,0,0,0,0,0,0,0,0,0,0,0,0,0,0,0,0,0,0,0,0,0,0,0,0,0,0
14.4,-435,-111,-1957,-45,-114,27,0,0,0,0,0,0,0,0,1,96,21,0,49,39,77,9,0,0,0,0,20,25,3,5,85,9,12,13,16,84,239,221,22,69,178,201,230,36,183,207,0,0,0,0,0,0,0,0,0,0,0,0,0,0,0,0,0,0,0,0,0,0,0,0,0,0,0,0,0,0,0,0,0,0,0,0,0,0,0,0,0,0,0,0,0,0
14.41,-462,-69,-1948,-66,-156,31,0,0,0,0,0,0,0,0,1,93,20,0,48,32,57,8,0,0,0,0,21,30,4,6,88,9,12,28,17,85,9,210,25,64,184,207,219,41,175,197,0,0,0,0,0,0,0,0,0,0,0,0,0,0,0,0,0,0,0,0,0,0,0,0,0,0,0,0,0,0,0,0,0,0,0,0,0,0,0,0,0,0,0,0,0,0
14.42,-462,-69,-1948,-66,-156,31,0,0,0,0,0,0,0,0,1,93,20,0,48,32,57,8,0,0,0,0,21,30,4,6,88,9,12,28,17,85,9,210,25,64,184,207,219,41,175,197,0,0,0,0,0,0,0,0,0,0,0,0,0,0,0,0,0,0,0,0,0,0,0,0,0,0,0,0,0,0,0,0,0,0,0,0,0,0,0,0,0,0,0,0,0,0
14.43,-462,-69,-1948,-66,-156,31,0,0,0,0,0,0,0,0,1,93,20,0,48,32,57,8,0,0,0,0,21,30,4,6,88,9,12,28,17,85,9,210,25,64,184,207,219,41,175,197,0,0,0,0,0,0,0,0,0,0,0,0,0,0,0,0,0,0,0,0,0,0,0,0,0,0,0,0,0,0,0,0,0,0,0,0,0,0,0,0,0,0,0,0,0,0
14.44,-462,-69,-1948,-66,-156,31,0,0,0,0,0,0,0,0,1,93,20,0,48,32,57,8,0,0,0,0,21,30,4,6,88,9,12,28,17,85,9,210,25,64,184,207,219,41,175,197,0,0,0,0,0,0,0,0,0,0,0,0,0,0,0,0,0,0,0,0,0,0,0,0,0,0,0,0,0,0,0,0,0,0,0,0,0,0,0,0,0,0,0,0,0,0
14.45,-467,-115,-1932,-76,-159,30,0,0,0,0,0,0,0,0,0,89,7,0,45,20,47,8,0,0,0,0,21,34,4,5,93,10,12,33,17,86,27,200,27,67,195,212,214,39,175,209,0,0,0,0,0,0,0,0,0,0,0,0,0,0,0,0,0,0,0,0,0,0,0,0,0,0,0,0,0,0,0,0,0,0,0,0,0,0,0,0,0,0,0,0,0,0
14.46,-515,-105,-1936,-98,-100,15,0,0,0,0,0,0,0,0,1,66,1,0,33,9,251,8,0,0,0,0,24,53,4,6,94,10,13,50,19,118,25,234,52,93,204,206,223,255,187,159,0,0,0,0,0,0,0,0,0,0,0,0,0,0,0,0,0,0,0,0,0,0,0,0,0,0,0,0,0,0,0,0,0,0,0,0,0,0,0,0,0,0,0,0,0,0
14.47,-504,-66,-1933,-92,-78,10,0,0,0,0,0,0,0,0,0,66,2,0,33,7,248,8,0,0,0,0,24,59,4,6,96,10,14,49,19,120,24,0,57,99,207,201,217,229,193,156,0,0,0,0,0,0,0,0,0,0,0,0,0,0,0,0,0,0,0,0,0,0,0,0,0,0,0,0,0,0,0,0,0,0,0,0,0,0,0,0,0,0,0,0,0,0
14.48,-480,-137,-1963,-93,-55,5,0,0,0,0,0,0,0,0,1,66,2,0,32,6,248,8,0,0,0,0,25,69,4,7,102,11,14,42,20,134,19,15,53,96,214,198,210,207,198,157,0,0,0,0,0,0,0,0,0,0,0,0,0,0,0,0,0,0,0,0,0,0,0,0,0,0,0,0,0,0,0,0,0,0,0,0,0,0,0,0,0,0,0,0,0,0
14.49,-480,-137,-1963,-93,-55,5,0,0,0,0,0,0,0,0,1,66,2,0,32,6,248,8,0,0,0,0,25,69,4,7,102,11,14,42,20,134,19,15,53,96,214,198,210,207,198,157,0,0,0,0,0,0,0,0,0,0,0,0,0,0,0,0,0,0,0,0,0,0,0,0,0,0,0,0,0,0,0,0,0,0,0,0,0,0,0,0,0,0,0,0,0,0
14.5,-480,-137,-1963,-93,-55,5,0,0,0,0,0,0,0,0,1,66,2,0,32,6,248,8,0,0,0,0,25,69,4,7,102,11,14,42,20,134,19,15,53,96,214,198,210,207,198,157,0,0,0,0,0,0,0,0,0,0,0,0,0,0,0,0,0,0,0,0,0,0,0,0,0,0,0,0,0,0,0,0,0,0,0,0,0,0,0,0,0,0,0,0,0,0
14.51,-480,-137,-1963,-93,-55,5,0,0,0,0,0,0,0,0,1,66,2,0,32,6,248,8,0,0,0,0,25,69,4,7,102,11,14,42,20,134,19,15,53,96,214,198,210,207,198,157,0,0,0,0,0,0,0,0,0,0,0,0,0,0,0,0,0,0,0,0,0,0,0,0,0,0,0,0,0,0,0,0,0,0,0,0,0,0,0,0,0,0,0,0,0,0
14.52,-480,-137,-1963,-93,-55,5,0,0,0,0,0,0,0,0,1,66,2,0,32,6,248,8,0,0,0,0,25,69,4,7,102,11,14,42,20,134,19,15,53,96,214,198,210,207,198,157,0,0,0,0,0,0,0,0,0,0,0,0,0,0,0,0,0,0,0,0,0,0,0,0,0,0,0,0,0,0,0,0,0,0,0,0,0,0,0,0,0,0,0,0,0,0
14.53,-515,-142,-1944,-95,-24,-1,0,0,0,0,0,0,0,0,0,66,2,0,29,4,249,8,0,0,0,0,26,69,5,7,101,11,14,41,20,134,19,21,57,96,235,203,207,181,195,150,0,0,0,0,0,0,0,0,0,0,0,0,0,0,0,0,0,0,0,0,0,0,0,0,0,0,0,0,0,0,0,0,0,0,0,0,0,0,0,0,0,0,0,0,0,0
14.54,-513,-45,-1956,-99,14,-7,0,0,0,0,0,0,0,0,1,64,2,0,37,10,247,9,0,0,0,0,25,66,5,6,102,10,14,37,21,143,23,24,54,97,235,199,207,177,192,151,0,0,0,0,0,0,0,0,0,0,0,0,0,0,0,0,0,0,0,0,0,0,0,0,0,0,0,0,0,0,0,0,0,0,0,0,0,0,0,0,0,0,0,0,0,0
14.55,-513,-45,-1956,-99,14,-7,0,0,0,0,0,0,0,0,1,64,2,0,37,10,247,9,0,0,0,0,25,66,5,6,102,10,14,37,21,143,23,24,54,97,235,199,207,177,192,151,0,0,0,0,0,0,0,0,0,0,0,0,0,0,0,0,0,0,0,0,0,0,0,0,0,0,0,0,0,0,0,0,0,0,0,0,0,0,0,0,0,0,0,0,0,0
14.56,-513,-45,-1956,-99,14,-7,0,0,0,0,0,0,0,0,1,64,2,0,37,10,247,9,0,0,0,0,25,66,5,6,102,10,14,37,21,143,23,24,54,97,235,199,207,177,192,151,0,0,0,0,0,0,0,0,0,0,0,0,0,0,0,0,0,0,0,0,0,0,0,0,0,0,0,0,0,0,0,0,0,0,0,0,0,0,0,0,0,0,0,0,0,0
14.57,-513,-45,-1956,-99,14,-7,0,0,0,0,0,0,0,0,1,64,2,0,37,10,247,9,0,0,0,0,25,66,5,6,102,10,14,37,21,143,23,24,54,97,235,199,207,177,192,151,0,0,0,0,0,0,0,0,0,0,0,0,0,0,0,0,0,0,0,0,0,0,0,0,0,0,0,0,0,0,0,0,0,0,0,0,0,0,0,0,0,0,0,0,0,0
14.58,-513,-45,-1956,-99,14,-7,0,0,0,0,0,0,0,0,1,64,2,0,37,10,247,9,0,0,0,0,25,66,5,6,102,10,14,37,21,143,23,24,54,97,235,199,207,177,192,151,0,0,0,0,0,0,0,0,0,0,0,0,0,0,0,0,0,0,0,0,0,0,0,0,0,0,0,0,0,0,0,0,0,0,0,0,0,0,0,0,0,0,0,0,0,0
14.59,-513,-45,-1956,-99,14,-7,0,0,0,0,0,0,0,0,1,64,2,0,37,10,247,9,0,0,0,0,25,66,5,6,102,10,14,37,21,143,23,24,54,97,235,199,207,177,192,151,0,0,0,0,0,0,0,0,0,0,0,0,0,0,0,0,0,0,0,0,0,0,0,0,0,0,0,0,0,0,0,0,0,0,0,0,0,0,0,0,0,0,0,0,0,0
14.6,-487,-57,-1994,-66,122,-12,0,0,0,0,0,0,0,0,0,67,3,0,45,15,245,8,0,0,0,0,29,67,4,6,100,10,14,22,23,151,13,68,43,92,225,197,221,143,182,150,0,0,0,0,0,0,0,0,0,0,0,0,0,0,0,0,0,0,0,0,0,0,0,0,0,0,0,0,0,0,0,0,0,0,0,0,0,0,0,0,0,0,0,0,0,0
14.61,-486,-79,-1962,-44,157,-16,0,0,0,0,0,0,0,0,1,87,3,0,49,16,30,9,0,0,0,0,29,51,5,6,96,11,13,19,23,151,0,85,42,93,223,197,215,130,182,135,0,0,0,0,0,0,0,0,0,0,0,0,0,0,0,0,0,0,0,0,0,0,0,0,0,0,0,0,0,0,0,0,0,0,0,0,0,0,0,0,0,0,0,0,0,0
14.62,-426,-80,-1992,-30,178,-17,0,0,0,0,0,0,0,0,2,106,21,0,51,22,37,9,0,0,0,0,28,38,4,6,98,10,13,21,23,161,251,88,49,86,223,198,217,125,179,96,0,0,0,0,0,0,0,0,0,0,0,0,0,0,0,0,0,0,0,0,0,0,0,0,0,0,0,0,0,0,0,0,0,0,0,0,0,0,0,0,0,0,0,0,0,0
14.63,-398,-88,-2013,-26,175,-16,0,0,0,0,0,0,0,0,2,115,26,0,55,23,47,9,0,0,0,0,29,25,4,6,99,10,12,17,22,164,248,98,51,83,221,195,216,118,175,79,0,0,0,0,0,0,0,0,0,0,0,0,0,0,0,0,0,0,0,0,0,0,0,0,0,0,0,0,0,0,0,0,0,0,0,0,0,0,0,0,0,0,0,0,0,0
14.64,-427,-41,-1933,-17,133,-10,0,0,0,0,0,0,0,0,2,130,35,0,65,85,83,11,0,0,0,0,28,0,4,5,87,9,12,250,22,168,249,119,42,68,209,182,224,110,181,32,0,0,0,0,0,0,0,0,0,0,0,0,0,0,0,0,0,0,0,0,0,0,0,0,0,0,0,0,0,0,0,0,0,0,0,0,0,0,0,0,0,0,0,0,0,0
14.65,-427,-41,-1933,-17,133,-10,0,0,0,0,0,0,0,0,2,130,35,0,65,85,83,11,0,0,0,0,28,0,4,5,87,9,12,250,22,168,249,119,42,68,209,182,224,110,181,32,0,0,0,0,0,0,0,0,0,0,0,0,0,0,0,0,0,0,0,0,0,0,0,0,0,0,0,0,0,0,0,0,0,0,0,0,0,0,0,0,0,0,0,0,0,0
14.66,-427,-41,-1933,-17,133,-10,0,0,0,0,0,0,0,0,2,130,35,0,65,85,83,11,0,0,0,0,28,0,4,5,87,9,12,250,22,168,249,119,42,68,209,182,224,110,181,32,0,0,0,0,0,0,0,0,0,0,0,0,0,0,0,0,0,0,0,0,0,0,0,0,0,0,0,0,0,0,0,0,0,0,0,0,0,0,0,0,0,0,0,0,0,0
14.67,-427,-41,-1933,-17,133,-10,0,0,0,0,0,0,0,0,2,130,35,0,65,85,83,11,0,0,0,0,28,0,4,5,87,9,12,250,22,168,249,119,42,68,209,182,224,110,181,32,0,0,0,0,0,0,0,0,0,0,0,0,0,0,0,0,0,0,0,0,0,0,0,0,0,0,0,0,0,0,0,0,0,0,0,0,0,0,0,0,0,0,0,0,0,0
14.68,-446,-117,-1964,-28,120,-11,0,0,0,0,0,0,0,0,1,130,39,0,66,85,74,11,0,0,0,0,29,8,3,6,88,9,13,250,23,166,244,120,40,61,207,181,231,109,179,31,0,0,0,0,0,0,0,0,0,0,0,0,0,0,0,0,0,0,0,0,0,0,0,0,0,0,0,0,0,0,0,0,0,0,0,0,0,0,0,0,0,0,0,0,0,0
14.69,-446,-117,-1964,-28,120,-11,0,0,0,0,0,0,0,0,1,130,39,0,66,85,74,11,0,0,0,0,29,8,3,6,88,9,13,250,23,166,244,120,40,61,207,181,231,109,179,31,0,0,0,0,0,0,0,0,0,0,0,0,0,0,0,0,0,0,0,0,0,0,0,0,0,0,0,0,0,0,0,0,0,0,0,0,0,0,0,0,0,0,0,0,0,0
14.7,-446,-117,-1964,-28,120,-11,0,0,0,0,0,0,0,0,1,130,39,0,66,85,74,11,0,0,0,0,29,8,3,6,88,9,13,250,23,166,244,120,40,61,207,181,231,109,179,31,0,0,0,0,0,0,0,0,0,0,0,0,0,0,0,0,0,0,0,0,0,0,0,0,0,0,0,0,0,0,0,0,0,0,0,0,0,0,0,0,0,0,0,0,0,0
14.71,-446,-117,-1964,-28,120,-11,0,0,0,0,0,0,0,0,1,130,39,0,66,85,74,11,0,0,0,0,29,8,3,6,88,9,13,250,23,166,244,120,40,61,207,181,231,109,179,31,0,0,0,0,0,0,0,0,0,0,0,0,0,0,0,0,0,0,0,0,0,0,0,0,0,0,0,0,0,0,0,0,0,0,0,0,0,0,0,0,0,0,0,0,0,0
14.72,-446,-117,-1964,-28,120,-11,0,0,0,0,0,0,0,0,1,130,39,0,66,85,74,11,0,0,0,0,29,8,3,6,88,9,13,250,23,166,244,120,40,61,207,181,231,109,179,31,0,0,0,0,0,0,0,0,0,0,0,0,0,0,0,0,0,0,0,0,0,0,0,0,0,0,0,0,0,0,0,0,0,0,0,0,0,0,0,0,0,0,0,0,0,0
14.73,-446,-117,-1964,-28,120,-11,0,0,0,0,0,0,0,0,1,130,39,0,66,85,74,11,0,0,0,0,29,8,3,6,88,9,13,250,23,166,244,120,40,61,207,181,231,109,179,31,0,0,0,0,0,0,0,0,0,0,0,0,0,0,0,0,0,0,0,0,0,0,0,0,0,0,0,0,0,0,0,0,0,0,0,0,0,0,0,0,0,0,0,0,0,0
14.74,-446,-117,-1964,-28,120,-11,0,0,0,0,0,0,0,0,1,130,39,0,66,85,74,11,0,0,0,0,29,8,3,6,88,9,13,250,23,166,244,120,40,61,207,181,231,109,179,31,0,0,0,0,0,0,0,0,0,0,0,0,0,0,0,0,0,0,0,0,0,0,0,0,0,0,0,0,0,0,0,0,0,0,0,0,0,0,0,0,0,0,0,0,0,0
14.75,-446,-117,-1964,-28,120,-11,0,0,0,0,0,0,0,0,1,130,39,0,66,85,74,11,0,0,0,0,29,8,3,6,88,9,13,250,23,166,244,120,40,61,207,181,231,109,179,31,0,0,0,0,0,0,0,0,0,0,0,0,0,0,0,0,0,0,0,0,0,0,0,0,0,0,0,0,0,0,0,0,0,0,0,0,0,0,0,0,0,0,0,0,0,0
14.76,-446,-117,-1964,-28,120,-11,0,0,0,0,0,0,0,0,1,130,39,0,66,85,74,11,0,0,0,0,29,8,3,6,88,9,13,250,23,166,244,120,40,61,207,181,231,109,179,31,0,0,0,0,0,0,0,0,0,0,0,0,0,0,0,0,0,0,0,0,0,0,0,0,0,0,0,0,0,0,0,0,0,0,0,0,0,0,0,0,0,0,0,0,0,0
14.77,-446,-117,-1964,-28,120,-11,0,0,0,0,0,0,0,0,1,130,39,0,66,85,74,11,0,0,0,0,29,8,3,6,88,9,13,250,23,166,244,120,40,61,207,181,231,109,179,31,0,0,0,0,0,0,0,0,0,0,0,0,0,0,0,0,0,0,0,0,0,0,0,0,0,0,0,0,0,0,0,0,0,0,0,0,0,0,0,0,0,0,0,0,0,0
14.78,-446,-117,-1964,-28,120,-11,0,0,0,0,0,0,0,0,1,130,39,0,66,85,74,11,0,0,0,0,29,8,3,6,88,9,13,250,23,166,244,120,40,61,207,181,231,109,179,31,0,0,0,0,0,0,0,0,0,0,0,0,0,0,0,0,0,0,0,0,0,0,0,0,0,0,0,0,0,0,0,0,0,0,0,0,0,0,0,0,0,0,0,0,0,0
14.79,-446,-117,-1964,-28,120,-11,0,0,0,0,0,0,0,0,1,130,39,0,66,85,74,11,0,0,0,0,29,8,3,6,88,9,13,250,23,166,244,120,40,61,207,181,231,109,179,31,0,0,0,0,0,0,0,0,0,0,0,0,0,0,0,0,0,0,0,0,0,0,0,0,0,0,0,0,0,0,0,0,0,0,0,0,0,0,0,0,0,0,0,0,0,0
14.8,-446,-117,-1964,-28,120,-11,0,0,0,0,0,0,0,0,1,130,39,0,66,85,74,11,0,0,0,0,29,8,3,6,88,9,13,250,23,166,244,120,40,61,207,181,231,109,179,31,0,0,0,0,0,0,0,0,0,0,0,0,0,0,0,0,0,0,0,0,0,0,0,0,0,0,0,0,0,0,0,0,0,0,0,0,0,0,0,0,0,0,0,0,0,0
14.81,-446,-117,-1964,-28,120,-11,0,0,0,0,0,0,0,0,1,130,39,0,66,85,74,11,0,0,0,0,29,8,3,6,88,9,13,250,23,166,244,120,40,61,207,181,231,109,179,31,0,0,0,0,0,0,0,0,0,0,0,0,0,0,0,0,0,0,0,0,0,0,0,0,0,0,0,0,0,0,0,0,0,0,0,0,0,0,0,0,0,0,0,0,0,0
14.82,-446,-117,-1964,-28,120,-11,0,0,0,0,0,0,0,0,1,130,39,0,66,85,74,11,0,0,0,0,29,8,3,6,88,9,13,250,23,166,244,120,40,61,207,181,231,109,179,31,0,0,0,0,0,0,0,0,0,0,0,0,0,0,0,0,0,0,0,0,0,0,0,0,0,0,0,0,0,0,0,0,0,0,0,0,0,0,0,0,0,0,0,0,0,0
14.83,-406,-85,-1986,-32,28,-2,0,0,0,0,0,0,0,0,2,137,37,0,75,109,95,39,0,0,0,0,31,4,4,5,98,9,12,250,22,175,215,119,38,67,204,185,223,91,167,250,0,0,0,0,0,0,0,0,0,0,0,0,0,0,0,0,0,0,0,0,0,0,0,0,0,0,0,0,0,0,0,0,0,0,0,0,0,0,0,0,0,0,0,0,0,0
14.84,-384,-81,-1963,-20,12,0,0,0,0,0,0,0,0,0,2,139,38,0,77,136,123,47,0,0,0,0,32,9,3,6,101,10,12,247,22,175,203,122,33,61,198,188,210,82,163,234,0,0,0,0,0,0,0,0,0,0,0,0,0,0,0,0,0,0,0,0,0,0,0,0,0,0,0,0,0,0,0,0,0,0,0,0,0,0,0,0,0,0,0,0,0,0
14.85,-384,-81,-1963,-20,12,0,0,0,0,0,0,0,0,0,2,139,38,0,77,136,123,47,0,0,0,0,32,9,3,6,101,10,12,247,22,175,203,122,33,61,198,188,210,82,163,234,0,0,0,0,0,0,0,0,0,0,0,0,0,0,0,0,0,0,0,0,0,0,0,0,0,0,0,0,0,0,0,0,0,0,0,0,0,0,0,0,0,0,0,0,0,0
14.86,-384,-81,-1963,-20,12,0,0,0,0,0,0,0,0,0,2,139,38,0,77,136,123,47,0,0,0,0,32,9,3,6,101,10,12,247,22,175,203,122,33,61,198,188,210,82,163,234,0,0,0,0,0,0,0,0,0,0,0,0,0,0,0,0,0,0,0,0,0,0,0,0,0,0,0,0,0,0,0,0,0,0,0,0,0,0,0,0,0,0,0,0,0,0
14.87,-384,-81,-1963,-20,12,0,0,0,0,0,0,0,0,0,2,139,38,0,77,136,123,47,0,0,0,0,32,9,3,6,101,10,12,247,22,175,203,122,33,61,198,188,210,82,163,234,0,0,0,0,0,0,0,0,0,0,0,0,0,0,0,0,0,0,0,0,0,0,0,0,0,0,0,0,0,0,0,0,0,0,0,0,0,0,0,0,0,0,0,0,0,0
14.88,-384,-81,-1963,-20,12,0,0,0,0,0,0,0,0,0,2,139,38,0,77,136,123,47,0,0,0,0,32,9,3,6,101,10,12,247,22,175,203,122,33,61,198,188,210,82,163,234,0,0,0,0,0,0,0,0,0,0,0,0,0,0,0,0,0,0,0,0,0,0,0,0,0,0,0,0,0,0,0,0,0,0,0,0,0,0,0,0,0,0,0,0,0,0
14.89,-384,-81,-1963,-20,12,0,0,0,0,0,0,0,0,0,2,139,38,0,77,136,123,47,0,0,0,0,32,9,3,6,101,10,12,247,22,175,203,122,33,61,198,188,210,82,163,234,0,0,0,0,0,0,0,0,0,0,0,0,0,0,0,0,0,0,0,0,0,0,0,0,0,0,0,0,0,0,0,0,0,0,0,0,0,0,0,0,0,0,0,0,0,0
14.9,-395,-105,-1967,-19,-7,2,0,0,0,0,0,0,0,0,3,145,40,1,80,159,134,50,0,0,0,0,34,13,3,6,98,10,11,241,22,175,217,126,28,43,198,193,196,76,156,215,0,0,0,0,0,0,0,0,0,0,0,0,0,0,0,0,0,0,0,0,0,0,0,0,0,0,0,0,0,0,0,0,0,0,0,0,0,0,0,0,0,0,0,0,0,0
14.91,-431,-70,-1963,-22,-21,4,0,0,0,0,0,0,0,0,2,145,40,0,87,165,135,51,0,0,0,0,34,12,4,9,104,9,16,239,28,172,209,131,31,47,197,184,195,69,143,207,0,0,0,0,0,0,0,0,0,0,0,0,0,0,0,0,0,0,0,0,0,0,0,0,0,0,0,0,0,0,0,0,0,0,0,0,0,0,0,0,0,0,0,0,0,0
14.92,-427,-74,-1967,10,-7,-1,0,0,0,0,0,0,0,0,6,230,58,2,135,253,230,82,0,0,0,0,40,47,4,11,107,10,88,233,32,238,186,196,240,3,159,152,118,11,45,17,0,0,0,0,0,0,0,0,0,0,0,0,0,0,0,0,0,0,0,0,0,0,0,0,0,0,0,0,0,0,0,0,0,0,0,0,0,0,0,0,0,0,0,0,0,0
14.93,-444,-13,-1955,16,2,-3,0,0,0,0,0,0,0,0,6,239,59,2,147,2,247,98,0,0,0,0,45,74,5,12,99,10,89,247,32,238,174,203,234,245,155,152,100,246,28,247,0,0,0,0,0,0,0,0,0,0,0,0,0,0,0,0,0,0,0,0,0,0,0,0,0,0,0,0,0,0,0,0,0,0,0,0,0,0,0,0,0,0,0,0,0,0
14.94,-444,-13,-1955,16,2,-3,0,0,0,0,0,0,0,0,6,239,59,2,147,2,247,98,0,0,0,0,45,74,5,12,99,10,89,247,32,238,174,203,234,245,155,152,100,246,28,247,0,0,0,0,0,0,0,0,0,0,0,0,0,0,0,0,0,0,0,0,0,0,0,0,0,0,0,0,0,0,0,0,0,0,0,0,0,0,0,0,0,0,0,0,0,0
14.95,-444,-13,-1955,16,2,-3,0,0,0,0,0,0,0,0,6,239,59,2,147,2,247,98,0,0,0,0,45,74,5,12,99,10,89,247,32,238,174,203,234,245,155,152,100,246,28,247,0,0,0,0,0,0,0,0,0,0,0,0,0,0,0,0,0,0,0,0,0,0,0,0,0,0,0,0,0,0,0,0,0,0,0,0,0,0,0,0,0,0,0,0,0,0
14.96,-444,-13,-1955,16,2,-3,0,0,0,0,0,0,0,0,6,239,59,2,147,2,247,98,0,0,0,0,45,74,5,12,99,10,89,247,32,238,174,203,234,245,155,152,100,246,28,247,0,0,0,0,0,0,0,0,0,0,0,0,0,0,0,0,0,0,0,0,0,0,0,0,0,0,0,0,0,0,0,0,0,0,0,0,0,0,0,0,0,0,0,0,0,0
14.97,-444,-13,-1955,16,2,-3,0,0,0,0,0,0,0,0,6,239,59,2,147,2,247,98,0,0,0,0,45,74,5,12,99,10,89,247,32,238,174,203,234,245,155,152,100,246,28,247,0,0,0,0,0,0,0,0,0,0,0,0,0,0,0,0,0,0,0,0,0,0,0,0,0,0,0,0,0,0,0,0,0,0,0,0,0,0,0,0,0,0,0,0,0,0
14.98,-377,-19,-2214,673,497,-162,135,206,65,0,161,154,159,145,152,9,237,185,43,178,83,178,0,0,0,0,104,57,24,94,96,2,13,44,1,1,0,30,12,10,111,67,0,0,0,0,0,0,0,0,0,0,0,0,0,0,0,0,0,0,0,0,0,0,0,0,0,0,0,0,0,0,0,0,0,0,0,0,0,0,0,0,0,0,0,0,0,0,0,0,0,0
14.99,-192,-141,-2446,710,506,-205,212,232,103,103,202,172,180,184,173,27,225,183,45,217,148,171,0,0,0,0,70,250,20,82,57,0,4,5,0,0,0,0,1,1,29,0,0,0,0,0,0,0,0,0,0,0,0,0,0,0,0,0,0,0,0,0,0,0,0,0,0,0,0,0,0,0,0,0,0,0,0,0,0,0,0,0,0,0,0,0,0,0,0,0,0,0
15,-826,15,-2990,753,495,-267,239,1,146,0,219,189,191,209,183,51,4,186,24,241,6,158,0,0,0,0,236,108,12,57,0,0,0,0,0,0,0,0,0,0,0,0,0,0,0,0,0,0,0,0,0,0,0,0,0,0,0,0,0,0,0,0,0,0,0,0,0,0,0,0,0,0,0,0,0,0,0,0,0,0,0,0,0,0,0,0,0,0,0,0,0,0
15.01,-634,-287,-4106,1080,431,-308,248,21,170,0,244,200,181,229,189,110,24,178,9,15,90,126,0,0,0,0,124,239,6,30,0,0,0,0,0,0,0,0,0,0,0,0,0,0,0,0,0,0,0,0,0,0,0,0,0,0,0,0,0,0,0,0,0,0,0,0,0,0,0,0,0,0,0,0,0,0,0,0,0,0,0,0,0,0,0,0,0,0,0,0,0,0
15.02,-634,-287,-4106,1080,431,-308,248,21,170,0,244,200,181,229,189,110,24,178,9,15,90,126,0,0,0,0,124,239,6,30,0,0,0,0,0,0,0,0,0,0,0,0,0,0,0,0,0,0,0,0,0,0,0,0,0,0,0,0,0,0,0,0,0,0,0,0,0,0,0,0,0,0,0,0,0,0,0,0,0,0,0,0,0,0,0,0,0,0,0,0,0,0
15.03,-634,-287,-4106,1080,431,-308,248,21,170,0,244,200,181,229,189,110,24,178,9,15,90,126,0,0,0,0,124,239,6,30,0,0,0,0,0,0,0,0,0,0,0,0,0,0,0,0,0,0,0,0,0,0,0,0,0,0,0,0,0,0,0,0,0,0,0,0,0,0,0,0,0,0,0,0,0,0,0,0,0,0,0,0,0,0,0,0,0,0,0,0,0,0
15.04,-634,-287,-4106,1080,431,-308,248,21,170,0,244,200,181,229,189,110,24,178,9,15,90,126,0,0,0,0,124,239,6,30,0,0,0,0,0,0,0,0,0,0,0,0,0,0,0,0,0,0,0,0,0,0,0,0,0,0,0,0,0,0,0,0,0,0,0,0,0,0,0,0,0,0,0,0,0,0,0,0,0,0,0,0,0,0,0,0,0,0,0,0,0,0
15.05,-391,35,-3279,1539,350,-367,243,23,197,0,0,209,185,20,203,157,9,175,3,11,142,77,0,0,0,0,77,162,2,16,0,0,0,0,0,0,0,0,0,0,0,0,0,0,0,0,0,0,0,0,0,0,0,0,0,0,0,0,0,0,0,0,0,0,0,0,0,0,0,0,0,0,0,0,0,0,0,0,0,0,0,0,0,0,0,0,0,0,0,0,0,0
15.06,-266,-63,-3458,1952,332,-396,242,251,237,0,11,212,194,41,205,178,186,175,250,7,169,55,0,0,0,0,71,159,2,14,0,0,0,0,0,0,0,0,0,0,0,0,0,0,0,0,0,0,0,0,0,0,0,0,0,0,0,0,0,0,0,0,0,0,0,0,0,0,0,0,0,0,0,0,0,0,0,0,0,0,0,0,0,0,0,0,0,0,0,0,0,0
15.07,-444,196,-3558,3282,158,-712,222,20,159,229,226,189,54,9,246,44,245,179,17,167,44,40,0,0,0,0,43,182,0,8,0,0,0,0,0,0,0,0,0,0,0,0,0,0,0,0,0,0,0,0,0,0,0,0,0,0,0,0,0,0,0,0,0,0,0,0,0,0,0,0,0,0,0,0,0,0,0,0,0,0,0,0,0,0,0,0,0,0,0,0,0,0
15.08,-655,3,-3772,3678,138,-830,233,38,161,248,220,186,53,18,19,53,123,173,253,183,2,16,0,0,0,0,0,52,0,1,0,0,0,0,0,0,0,0,0,0,0,0,0,0,0,0,0,0,0,0,0,0,0,0,0,0,0,0,0,0,0,0,0,0,0,0,0,0,0,0,0,0,0,0,0,0,0,0,0,0,0,0,0,0,0,0,0,0,0,0,0,0
15.09,-1184,22,-3761,4074,248,-918,0,65,175,46,188,167,48,210,226,185,3,186,52,41,165,16,0,0,0,0,0,0,0,0,0,0,0,0,0,0,0,0,0,0,0,0,0,0,0,0,0,0,0,0,0,0,0,0,0,0,0,0,0,0,0,0,0,0,0,0,0,0,0,0,0,0,0,0,0,0,0,0,0,0,0,0,0,0,0,0,0,0,0,0,0,0
15.1,-1184,22,-3761,4074,248,-918,0,65,175,46,188,167,48,210,226,185,3,186,52,41,165,16,0,0,0,0,0,0,0,0,0,0,0,0,0,0,0,0,0,0,0,0,0,0,0,0,0,0,0,0,0,0,0,0,0,0,0,0,0,0,0,0,0,0,0,0,0,0,0,0,0,0,0,0,0,0,0,0,0,0,0,0,0,0,0,0,0,0,0,0,0,0
15.11,-1184,22,-3761,4074,248,-918,0,65,175,46,188,167,48,210,226,185,3,186,52,41,165,16,0,0,0,0,0,0,0,0,0,0,0,0,0,0,0,0,0,0,0,0,0,0,0,0,0,0,0,0,0,0,0,0,0,0,0,0,0,0,0,0,0,0,0,0,0,0,0,0,0,0,0,0,0,0,0,0,0,0,0,0,0,0,0,0,0,0,0,0,0,0
15.12,-1184,22,-3761,4074,248,-918,0,65,175,46,188,167,48,210,226,185,3,186,52,41,165,16,0,0,0,0,0,0,0,0,0,0,0,0,0,0,0,0,0,0,0,0,0,0,0,0,0,0,0,0,0,0,0,0,0,0,0,0,0,0,0,0,0,0,0,0,0,0,0,0,0,0,0,0,0,0,0,0,0,0,0,0,0,0,0,0,0,0,0,0,0,0
15.13,-1160,244,-3687,4444,324,-1043,92,104,207,0,102,36,27,62,127,158,243,181,133,150,161,72,0,0,0,0,0,0,0,0,0,0,0,0,0,0,0,0,0,0,0,0,0,0,0,0,0,0,0,0,0,0,0,0,0,0,0,0,0,0,0,0,0,0,0,0,0,0,0,0,0,0,0,0,0,0,0,0,0,0,0,0,0,0,0,0,0,0,0,0,0,0
15.14,-1530,-94,-3383,4999,554,-1673,73,67,1,0,0,0,2,0,179,71,2,102,199,55,5,138,2,0,2,0,1,2,0,0,1,0,0,0,0,1,2,0,0,2,0,0,2,0,0,0,0,0,0,0,0,0,0,0,0,0,0,0,0,0,0,0,0,0,0,0,0,0,0,0,0,0,0,0,0,0,0,0,0,0,0,0,0,0,0,0,0,0,0,0,0,0
15.15,-1157,545,-2128,5069,781,-1824,0,0,1,0,1,0,1,0,1,0,3,39,95,111,4,0,1,0,1,0,0,2,0,1,1,0,0,0,1,0,1,0,0,1,0,1,2,0,0,0,0,0,0,0,0,0,0,0,0,0,0,0,0,0,0,0,0,0,0,0,0,0,0,0,0,0,0,0,0,0,0,0,0,0,0,0,0,0,0,0,0,0,0,0,0,0
15.16,-716,-53,-1595,5015,1337,-1955,8,2,0,0,7,2,1,9,7,2,0,16,7,2,1,6,7,2,0,0,3,0,12,7,1,4,7,3,8,2,1,4,2,1,2,9,1,2,7,2,0,0,0,0,0,0,0,0,0,0,0,0,0,0,0,0,0,0,0,0,0,0,0,0,0,0,0,0,0,0,0,0,0,0,0,0,0,0,0,0,0,0,0,0,0,0
