timestep,L_acc_x,L_acc_y,L_acc_z,L_gyro_x,L_gyro_y,L_gyro_z,L_pressure_1,L_pressure_2,L_pressure_3,L_pressure_4,L_pressure_5,L_pressure_6,L_pressure_7,L_pressure_8,L_pressure_9,L_pressure_10,L_pressure_11,L_pressure_12,L_pressure_13,L_pressure_14,L_pressure_15,L_pressure_16,L_pressure_17,L_pressure_18,L_pressure_19,L_pressure_20,L_pressure_21,L_pressure_22,L_pressure_23,L_pressure_24,L_pressure_25,L_pressure_26,L_pressure_27,L_pressure_28,L_pressure_29,L_pressure_30,L_pressure_31,L_pressure_32,L_pressure_33,L_pressure_34,L_pressure_35,L_pressure_36,L_pressure_37,L_pressure_38,L_pressure_39,L_pressure_40,R_acc_x,R_acc_y,R_acc_z,R_gyro_x,R_gyro_y,R_gyro_z,R_pressure_1,R_pressure_2,R_pressure_3,R_pressure_4,R_pressure_5,R_pressure_6,R_pressure_7,R_pressure_8,R_pressure_9,R_pressure_10,R_pressure_11,R_pressure_12,R_pressure_13,R_pressure_14,R_pressure_15,R_pressure_16,R_pressure_17,R_pressure_18,R_pressure_19,R_pressure_20,R_pressure_21,R_pressure_22,R_pressure_23,R_pressure_24,R_pressure_25,R_pressure_26,R_pressure_27,R_pressure_28,R_pressure_29,R_pressure_30,R_pressure_31,R_pressure_32,R_pressure_33,R_pressure_34,R_pressure_35,R_pressure_36,R_pressure_37,R_pressure_38,R_pressure_39,R_pressure_40
208.55,-1860,-1996,-19324,3616,1535,-2037,59,158,169,241,166,187,118,155,211,251,20,156,207,88,141,108,0,1,0,0,40,19,23,84,0,0,0,0,0,1,0,0,1,1,22,1,1,0,0,0,0,0,0,0,0,0,0,0,0,0,0,0,0,0,0,0,0,0,0,0,0,0,0,0,0,0,0,0,0,0,0,0,0,0,0,0,0,0,0,0,0,0,0,0,0,0
208.56,-4504,-868,-19180,4521,2085,-2664,94,190,183,0,197,208,138,149,171,208,6,138,173,69,125,113,0,0,0,0,49,10,24,82,0,0,1,0,0,0,0,0,1,2,19,1,1,0,0,1,0,0,0,0,0,0,0,0,0,0,0,0,0,0,0,0,0,0,0,0,0,0,0,0,0,0,0,0,0,0,0,0,0,0,0,0,0,0,0,0,0,0,0,0,0,0
208.57,964,-2420,-26372,8725,2101,-1860,115,246,208,65,232,250,185,120,155,172,11,111,146,33,104,123,0,0,0,0,25,214,24,73,1,0,0,0,1,0,0,0,1,0,0,0,1,0,1,0,0,0,0,0,0,0,0,0,0,0,0,0,0,0,0,0,0,0,0,0,0,0,0,0,0,0,0,0,0,0,0,0,0,0,0,0,0,0,0,0,0,0,0,0,0,0
208.58,964,-2420,-26372,8725,2101,-1860,115,246,208,65,232,250,185,120,155,172,11,111,146,33,104,123,0,0,0,0,25,214,24,73,1,0,0,0,1,0,0,0,1,0,0,0,1,0,1,0,0,0,0,0,0,0,0,0,0,0,0,0,0,0,0,0,0,0,0,0,0,0,0,0,0,0,0,0,0,0,0,0,0,0,0,0,0,0,0,0,0,0,0,0,0,0
208.59,964,-2420,-26372,8725,2101,-1860,115,246,208,65,232,250,185,120,155,172,11,111,146,33,104,123,0,0,0,0,25,214,24,73,1,0,0,0,1,0,0,0,1,0,0,0,1,0,1,0,0,0,0,0,0,0,0,0,0,0,0,0,0,0,0,0,0,0,0,0,0,0,0,0,0,0,0,0,0,0,0,0,0,0,0,0,0,0,0,0,0,0,0,0,0,0
208.6,964,-2420,-26372,8725,2101,-1860,115,246,208,65,232,250,185,120,155,172,11,111,146,33,104,123,0,0,0,0,25,214,24,73,1,0,0,0,1,0,0,0,1,0,0,0,1,0,1,0,0,0,0,0,0,0,0,0,0,0,0,0,0,0,0,0,0,0,0,0,0,0,0,0,0,0,0,0,0,0,0,0,0,0,0,0,0,0,0,0,0,0,0,0,0,0
208.61,964,-2420,-26372,8725,2101,-1860,115,246,208,65,232,250,185,120,155,172,11,111,146,33,104,123,0,0,0,0,25,214,24,73,1,0,0,0,1,0,0,0,1,0,0,0,1,0,1,0,0,0,0,0,0,0,0,0,0,0,0,0,0,0,0,0,0,0,0,0,0,0,0,0,0,0,0,0,0,0,0,0,0,0,0,0,0,0,0,0,0,0,0,0,0,0
208.62,-2456,-2008,-25064,11340,402,-2473,135,14,215,0,255,29,197,106,147,177,25,76,118,15,99,103,0,0,0,0,230,183,20,63,0,0,0,0,0,0,0,0,0,0,0,1,0,0,1,1,0,0,0,0,0,0,0,0,0,0,0,0,0,0,0,0,0,0,0,0,0,0,0,0,0,0,0,0,0,0,0,0,0,0,0,0,0,0,0,0,0,0,0,0,0,0
208.63,-2456,-2008,-25064,11340,402,-2473,135,14,215,0,255,29,197,106,147,177,25,76,118,15,99,103,0,0,0,0,230,183,20,63,0,0,0,0,0,0,0,0,0,0,0,1,0,0,1,1,0,0,0,0,0,0,0,0,0,0,0,0,0,0,0,0,0,0,0,0,0,0,0,0,0,0,0,0,0,0,0,0,0,0,0,0,0,0,0,0,0,0,0,0,0,0
208.64,-2456,-2008,-25064,11340,402,-2473,135,14,215,0,255,29,197,106,147,177,25,76,118,15,99,103,0,0,0,0,230,183,20,63,0,0,0,0,0,0,0,0,0,0,0,1,0,0,1,1,0,0,0,0,0,0,0,0,0,0,0,0,0,0,0,0,0,0,0,0,0,0,0,0,0,0,0,0,0,0,0,0,0,0,0,0,0,0,0,0,0,0,0,0,0,0
208.65,-2456,-2008,-25064,11340,402,-2473,135,14,215,0,255,29,197,106,147,177,25,76,118,15,99,103,0,0,0,0,230,183,20,63,0,0,0,0,0,0,0,0,0,0,0,1,0,0,1,1,0,0,0,0,0,0,0,0,0,0,0,0,0,0,0,0,0,0,0,0,0,0,0,0,0,0,0,0,0,0,0,0,0,0,0,0,0,0,0,0,0,0,0,0,0,0
208.66,-2456,-2008,-25064,11340,402,-2473,135,14,215,0,255,29,197,106,147,177,25,76,118,15,99,103,0,0,0,0,230,183,20,63,0,0,0,0,0,0,0,0,0,0,0,1,0,0,1,1,0,0,0,0,0,0,0,0,0,0,0,0,0,0,0,0,0,0,0,0,0,0,0,0,0,0,0,0,0,0,0,0,0,0,0,0,0,0,0,0,0,0,0,0,0,0
208.67,-2456,-2008,-25064,11340,402,-2473,135,14,215,0,255,29,197,106,147,177,25,76,118,15,99,103,0,0,0,0,230,183,20,63,0,0,0,0,0,0,0,0,0,0,0,1,0,0,1,1,0,0,0,0,0,0,0,0,0,0,0,0,0,0,0,0,0,0,0,0,0,0,0,0,0,0,0,0,0,0,0,0,0,0,0,0,0,0,0,0,0,0,0,0,0,0
208.68,-2456,-2008,-25064,11340,402,-2473,135,14,215,0,255,29,197,106,147,177,25,76,118,15,99,103,0,0,0,0,230,183,20,63,0,0,0,0,0,0,0,0,0,0,0,1,0,0,1,1,0,0,0,0,0,0,0,0,0,0,0,0,0,0,0,0,0,0,0,0,0,0,0,0,0,0,0,0,0,0,0,0,0,0,0,0,0,0,0,0,0,0,0,0,0,0
208.69,-18436,-11092,-32768,32767,6071,-20189,187,73,213,74,184,171,43,243,128,64,251,50,219,165,133,95,0,1,0,0,1,0,0,0,0,0,0,0,0,1,0,0,0,0,0,0,0,0,1,0,0,0,0,0,0,0,0,0,0,0,0,0,0,0,0,0,0,0,0,0,0,0,0,0,0,0,0,0,0,0,0,0,0,0,0,0,0,0,0,0,0,0,0,0,0,0
208.7,-17940,-3256,-32768,32767,5777,-22237,63,199,26,254,12,60,8,152,215,128,141,219,165,41,79,129,0,0,1,0,1,1,0,0,0,0,0,1,1,0,0,0,0,1,0,0,0,0,0,1,0,0,0,0,0,0,0,0,0,0,0,0,0,0,0,0,0,0,0,0,0,0,0,0,0,0,0,0,0,0,0,0,0,0,0,0,0,0,0,0,0,0,0,0,0,0
208.71,-22116,11948,-32768,32767,15708,-24000,183,51,2,0,1,1,0,125,2,109,28,13,28,231,115,10,1,0,0,0,1,1,0,1,1,0,1,0,1,0,0,0,0,0,0,0,0,0,0,0,0,0,0,0,0,0,0,0,0,0,0,0,0,0,0,0,0,0,0,0,0,0,0,0,0,0,0,0,0,0,0,0,0,0,0,0,0,0,0,0,0,0,0,0,0,0
208.72,-22116,11948,-32768,32767,15708,-24000,183,51,2,0,1,1,0,125,2,109,28,13,28,231,115,10,1,0,0,0,1,1,0,1,1,0,1,0,1,0,0,0,0,0,0,0,0,0,0,0,0,0,0,0,0,0,0,0,0,0,0,0,0,0,0,0,0,0,0,0,0,0,0,0,0,0,0,0,0,0,0,0,0,0,0,0,0,0,0,0,0,0,0,0,0,0
208.73,-22116,11948,-32768,32767,15708,-24000,183,51,2,0,1,1,0,125,2,109,28,13,28,231,115,10,1,0,0,0,1,1,0,1,1,0,1,0,1,0,0,0,0,0,0,0,0,0,0,0,0,0,0,0,0,0,0,0,0,0,0,0,0,0,0,0,0,0,0,0,0,0,0,0,0,0,0,0,0,0,0,0,0,0,0,0,0,0,0,0,0,0,0,0,0,0
208.74,-22116,11948,-32768,32767,15708,-24000,183,51,2,0,1,1,0,125,2,109,28,13,28,231,115,10,1,0,0,0,1,1,0,1,1,0,1,0,1,0,0,0,0,0,0,0,0,0,0,0,0,0,0,0,0,0,0,0,0,0,0,0,0,0,0,0,0,0,0,0,0,0,0,0,0,0,0,0,0,0,0,0,0,0,0,0,0,0,0,0,0,0,0,0,0,0
208.75,-22116,11948,-32768,32767,15708,-24000,183,51,2,0,1,1,0,125,2,109,28,13,28,231,115,10,1,0,0,0,1,1,0,1,1,0,1,0,1,0,0,0,0,0,0,0,0,0,0,0,0,0,0,0,0,0,0,0,0,0,0,0,0,0,0,0,0,0,0,0,0,0,0,0,0,0,0,0,0,0,0,0,0,0,0,0,0,0,0,0,0,0,0,0,0,0
208.76,-22116,11948,-32768,32767,15708,-24000,183,51,2,0,1,1,0,125,2,109,28,13,28,231,115,10,1,0,0,0,1,1,0,1,1,0,1,0,1,0,0,0,0,0,0,0,0,0,0,0,0,0,0,0,0,0,0,0,0,0,0,0,0,0,0,0,0,0,0,0,0,0,0,0,0,0,0,0,0,0,0,0,0,0,0,0,0,0,0,0,0,0,0,0,0,0
208.77,-22116,11948,-32768,32767,15708,-24000,183,51,2,0,1,1,0,125,2,109,28,13,28,231,115,10,1,0,0,0,1,1,0,1,1,0,1,0,1,0,0,0,0,0,0,0,0,0,0,0,0,0,0,0,0,0,0,0,0,0,0,0,0,0,0,0,0,0,0,0,0,0,0,0,0,0,0,0,0,0,0,0,0,0,0,0,0,0,0,0,0,0,0,0,0,0
208.78,-22116,11948,-32768,32767,15708,-24000,183,51,2,0,1,1,0,125,2,109,28,13,28,231,115,10,1,0,0,0,1,1,0,1,1,0,1,0,1,0,0,0,0,0,0,0,0,0,0,0,0,0,0,0,0,0,0,0,0,0,0,0,0,0,0,0,0,0,0,0,0,0,0,0,0,0,0,0,0,0,0,0,0,0,0,0,0,0,0,0,0,0,0,0,0,0
208.79,-22116,11948,-32768,32767,15708,-24000,183,51,2,0,1,1,0,125,2,109,28,13,28,231,115,10,1,0,0,0,1,1,0,1,1,0,1,0,1,0,0,0,0,0,0,0,0,0,0,0,0,0,0,0,0,0,0,0,0,0,0,0,0,0,0,0,0,0,0,0,0,0,0,0,0,0,0,0,0,0,0,0,0,0,0,0,0,0,0,0,0,0,0,0,0,0
208.8,-22116,11948,-32768,32767,15708,-24000,183,51,2,0,1,1,0,125,2,109,28,13,28,231,115,10,1,0,0,0,1,1,0,1,1,0,1,0,1,0,0,0,0,0,0,0,0,0,0,0,0,0,0,0,0,0,0,0,0,0,0,0,0,0,0,0,0,0,0,0,0,0,0,0,0,0,0,0,0,0,0,0,0,0,0,0,0,0,0,0,0,0,0,0,0,0
208.81,-22116,11948,-32768,32767,15708,-24000,183,51,2,0,1,1,0,125,2,109,28,13,28,231,115,10,1,0,0,0,1,1,0,1,1,0,1,0,1,0,0,0,0,0,0,0,0,0,0,0,0,0,0,0,0,0,0,0,0,0,0,0,0,0,0,0,0,0,0,0,0,0,0,0,0,0,0,0,0,0,0,0,0,0,0,0,0,0,0,0,0,0,0,0,0,0
208.82,-22116,11948,-32768,32767,15708,-24000,183,51,2,0,1,1,0,125,2,109,28,13,28,231,115,10,1,0,0,0,1,1,0,1,1,0,1,0,1,0,0,0,0,0,0,0,0,0,0,0,0,0,0,0,0,0,0,0,0,0,0,0,0,0,0,0,0,0,0,0,0,0,0,0,0,0,0,0,0,0,0,0,0,0,0,0,0,0,0,0,0,0,0,0,0,0
208.83,-22116,11948,-32768,32767,15708,-24000,183,51,2,0,1,1,0,125,2,109,28,13,28,231,115,10,1,0,0,0,1,1,0,1,1,0,1,0,1,0,0,0,0,0,0,0,0,0,0,0,0,0,0,0,0,0,0,0,0,0,0,0,0,0,0,0,0,0,0,0,0,0,0,0,0,0,0,0,0,0,0,0,0,0,0,0,0,0,0,0,0,0,0,0,0,0
208.84,-22116,11948,-32768,32767,15708,-24000,183,51,2,0,1,1,0,125,2,109,28,13,28,231,115,10,1,0,0,0,1,1,0,1,1,0,1,0,1,0,0,0,0,0,0,0,0,0,0,0,0,0,0,0,0,0,0,0,0,0,0,0,0,0,0,0,0,0,0,0,0,0,0,0,0,0,0,0,0,0,0,0,0,0,0,0,0,0,0,0,0,0,0,0,0,0
208.85,-22116,11948,-32768,32767,15708,-24000,183,51,2,0,1,1,0,125,2,109,28,13,28,231,115,10,1,0,0,0,1,1,0,1,1,0,1,0,1,0,0,0,0,0,0,0,0,0,0,0,0,0,0,0,0,0,0,0,0,0,0,0,0,0,0,0,0,0,0,0,0,0,0,0,0,0,0,0,0,0,0,0,0,0,0,0,0,0,0,0,0,0,0,0,0,0
208.86,-22116,11948,-32768,32767,15708,-24000,183,51,2,0,1,1,0,125,2,109,28,13,28,231,115,10,1,0,0,0,1,1,0,1,1,0,1,0,1,0,0,0,0,0,0,0,0,0,0,0,0,0,0,0,0,0,0,0,0,0,0,0,0,0,0,0,0,0,0,0,0,0,0,0,0,0,0,0,0,0,0,0,0,0,0,0,0,0,0,0,0,0,0,0,0,0
208.87,-22116,11948,-32768,32767,15708,-24000,183,51,2,0,1,1,0,125,2,109,28,13,28,231,115,10,1,0,0,0,1,1,0,1,1,0,1,0,1,0,0,0,0,0,0,0,0,0,0,0,0,0,0,0,0,0,0,0,0,0,0,0,0,0,0,0,0,0,0,0,0,0,0,0,0,0,0,0,0,0,0,0,0,0,0,0,0,0,0,0,0,0,0,0,0,0
208.88,-22116,11948,-32768,32767,15708,-24000,183,51,2,0,1,1,0,125,2,109,28,13,28,231,115,10,1,0,0,0,1,1,0,1,1,0,1,0,1,0,0,0,0,0,0,0,0,0,0,0,0,0,0,0,0,0,0,0,0,0,0,0,0,0,0,0,0,0,0,0,0,0,0,0,0,0,0,0,0,0,0,0,0,0,0,0,0,0,0,0,0,0,0,0,0,0
208.89,-22116,11948,-32768,32767,15708,-24000,183,51,2,0,1,1,0,125,2,109,28,13,28,231,115,10,1,0,0,0,1,1,0,1,1,0,1,0,1,0,0,0,0,0,0,0,0,0,0,0,0,0,0,0,0,0,0,0,0,0,0,0,0,0,0,0,0,0,0,0,0,0,0,0,0,0,0,0,0,0,0,0,0,0,0,0,0,0,0,0,0,0,0,0,0,0
208.9,-22116,11948,-32768,32767,15708,-24000,183,51,2,0,1,1,0,125,2,109,28,13,28,231,115,10,1,0,0,0,1,1,0,1,1,0,1,0,1,0,0,0,0,0,0,0,0,0,0,0,0,0,0,0,0,0,0,0,0,0,0,0,0,0,0,0,0,0,0,0,0,0,0,0,0,0,0,0,0,0,0,0,0,0,0,0,0,0,0,0,0,0,0,0,0,0
208.91,-22116,11948,-32768,32767,15708,-24000,183,51,2,0,1,1,0,125,2,109,28,13,28,231,115,10,1,0,0,0,1,1,0,1,1,0,1,0,1,0,0,0,0,0,0,0,0,0,0,0,0,0,0,0,0,0,0,0,0,0,0,0,0,0,0,0,0,0,0,0,0,0,0,0,0,0,0,0,0,0,0,0,0,0,0,0,0,0,0,0,0,0,0,0,0,0
208.92,-22116,11948,-32768,32767,15708,-24000,183,51,2,0,1,1,0,125,2,109,28,13,28,231,115,10,1,0,0,0,1,1,0,1,1,0,1,0,1,0,0,0,0,0,0,0,0,0,0,0,0,0,0,0,0,0,0,0,0,0,0,0,0,0,0,0,0,0,0,0,0,0,0,0,0,0,0,0,0,0,0,0,0,0,0,0,0,0,0,0,0,0,0,0,0,0
208.93,-22116,11948,-32768,32767,15708,-24000,183,51,2,0,1,1,0,125,2,109,28,13,28,231,115,10,1,0,0,0,1,1,0,1,1,0,1,0,1,0,0,0,0,0,0,0,0,0,0,0,0,0,0,0,0,0,0,0,0,0,0,0,0,0,0,0,0,0,0,0,0,0,0,0,0,0,0,0,0,0,0,0,0,0,0,0,0,0,0,0,0,0,0,0,0,0
208.94,-22116,11948,-32768,32767,15708,-24000,183,51,2,0,1,1,0,125,2,109,28,13,28,231,115,10,1,0,0,0,1,1,0,1,1,0,1,0,1,0,0,0,0,0,0,0,0,0,0,0,0,0,0,0,0,0,0,0,0,0,0,0,0,0,0,0,0,0,0,0,0,0,0,0,0,0,0,0,0,0,0,0,0,0,0,0,0,0,0,0,0,0,0,0,0,0
208.95,-22116,11948,-32768,32767,15708,-24000,183,51,2,0,1,1,0,125,2,109,28,13,28,231,115,10,1,0,0,0,1,1,0,1,1,0,1,0,1,0,0,0,0,0,0,0,0,0,0,0,0,0,0,0,0,0,0,0,0,0,0,0,0,0,0,0,0,0,0,0,0,0,0,0,0,0,0,0,0,0,0,0,0,0,0,0,0,0,0,0,0,0,0,0,0,0
208.96,-22116,11948,-32768,32767,15708,-24000,183,51,2,0,1,1,0,125,2,109,28,13,28,231,115,10,1,0,0,0,1,1,0,1,1,0,1,0,1,0,0,0,0,0,0,0,0,0,0,0,0,0,0,0,0,0,0,0,0,0,0,0,0,0,0,0,0,0,0,0,0,0,0,0,0,0,0,0,0,0,0,0,0,0,0,0,0,0,0,0,0,0,0,0,0,0
208.97,-22116,11948,-32768,32767,15708,-24000,183,51,2,0,1,1,0,125,2,109,28,13,28,231,115,10,1,0,0,0,1,1,0,1,1,0,1,0,1,0,0,0,0,0,0,0,0,0,0,0,0,0,0,0,0,0,0,0,0,0,0,0,0,0,0,0,0,0,0,0,0,0,0,0,0,0,0,0,0,0,0,0,0,0,0,0,0,0,0,0,0,0,0,0,0,0
208.98,-22116,11948,-32768,32767,15708,-24000,183,51,2,0,1,1,0,125,2,109,28,13,28,231,115,10,1,0,0,0,1,1,0,1,1,0,1,0,1,0,0,0,0,0,0,0,0,0,0,0,0,0,0,0,0,0,0,0,0,0,0,0,0,0,0,0,0,0,0,0,0,0,0,0,0,0,0,0,0,0,0,0,0,0,0,0,0,0,0,0,0,0,0,0,0,0
208.99,-22116,11948,-32768,32767,15708,-24000,183,51,2,0,1,1,0,125,2,109,28,13,28,231,115,10,1,0,0,0,1,1,0,1,1,0,1,0,1,0,0,0,0,0,0,0,0,0,0,0,0,0,0,0,0,0,0,0,0,0,0,0,0,0,0,0,0,0,0,0,0,0,0,0,0,0,0,0,0,0,0,0,0,0,0,0,0,0,0,0,0,0,0,0,0,0
209,-22116,11948,-32768,32767,15708,-24000,183,51,2,0,1,1,0,125,2,109,28,13,28,231,115,10,1,0,0,0,1,1,0,1,1,0,1,0,1,0,0,0,0,0,0,0,0,0,0,0,0,0,0,0,0,0,0,0,0,0,0,0,0,0,0,0,0,0,0,0,0,0,0,0,0,0,0,0,0,0,0,0,0,0,0,0,0,0,0,0,0,0,0,0,0,0
209.01,-22116,11948,-32768,32767,15708,-24000,183,51,2,0,1,1,0,125,2,109,28,13,28,231,115,10,1,0,0,0,1,1,0,1,1,0,1,0,1,0,0,0,0,0,0,0,0,0,0,0,0,0,0,0,0,0,0,0,0,0,0,0,0,0,0,0,0,0,0,0,0,0,0,0,0,0,0,0,0,0,0,0,0,0,0,0,0,0,0,0,0,0,0,0,0,0
209.02,-22116,11948,-32768,32767,15708,-24000,183,51,2,0,1,1,0,125,2,109,28,13,28,231,115,10,1,0,0,0,1,1,0,1,1,0,1,0,1,0,0,0,0,0,0,0,0,0,0,0,0,0,0,0,0,0,0,0,0,0,0,0,0,0,0,0,0,0,0,0,0,0,0,0,0,0,0,0,0,0,0,0,0,0,0,0,0,0,0,0,0,0,0,0,0,0
209.03,-22116,11948,-32768,32767,15708,-24000,183,51,2,0,1,1,0,125,2,109,28,13,28,231,115,10,1,0,0,0,1,1,0,1,1,0,1,0,1,0,0,0,0,0,0,0,0,0,0,0,0,0,0,0,0,0,0,0,0,0,0,0,0,0,0,0,0,0,0,0,0,0,0,0,0,0,0,0,0,0,0,0,0,0,0,0,0,0,0,0,0,0,0,0,0,0
209.04,-22116,11948,-32768,32767,15708,-24000,183,51,2,0,1,1,0,125,2,109,28,13,28,231,115,10,1,0,0,0,1,1,0,1,1,0,1,0,1,0,0,0,0,0,0,0,0,0,0,0,0,0,0,0,0,0,0,0,0,0,0,0,0,0,0,0,0,0,0,0,0,0,0,0,0,0,0,0,0,0,0,0,0,0,0,0,0,0,0,0,0,0,0,0,0,0
209.05,-22116,11948,-32768,32767,15708,-24000,183,51,2,0,1,1,0,125,2,109,28,13,28,231,115,10,1,0,0,0,1,1,0,1,1,0,1,0,1,0,0,0,0,0,0,0,0,0,0,0,0,0,0,0,0,0,0,0,0,0,0,0,0,0,0,0,0,0,0,0,0,0,0,0,0,0,0,0,0,0,0,0,0,0,0,0,0,0,0,0,0,0,0,0,0,0
209.06,-22116,11948,-32768,32767,15708,-24000,183,51,2,0,1,1,0,125,2,109,28,13,28,231,115,10,1,0,0,0,1,1,0,1,1,0,1,0,1,0,0,0,0,0,0,0,0,0,0,0,0,0,0,0,0,0,0,0,0,0,0,0,0,0,0,0,0,0,0,0,0,0,0,0,0,0,0,0,0,0,0,0,0,0,0,0,0,0,0,0,0,0,0,0,0,0
209.07,-22116,11948,-32768,32767,15708,-24000,183,51,2,0,1,1,0,125,2,109,28,13,28,231,115,10,1,0,0,0,1,1,0,1,1,0,1,0,1,0,0,0,0,0,0,0,0,0,0,0,0,0,0,0,0,0,0,0,0,0,0,0,0,0,0,0,0,0,0,0,0,0,0,0,0,0,0,0,0,0,0,0,0,0,0,0,0,0,0,0,0,0,0,0,0,0
209.08,-22116,11948,-32768,32767,15708,-24000,183,51,2,0,1,1,0,125,2,109,28,13,28,231,115,10,1,0,0,0,1,1,0,1,1,0,1,0,1,0,0,0,0,0,0,0,0,0,0,0,0,0,0,0,0,0,0,0,0,0,0,0,0,0,0,0,0,0,0,0,0,0,0,0,0,0,0,0,0,0,0,0,0,0,0,0,0,0,0,0,0,0,0,0,0,0
209.09,-22116,11948,-32768,32767,15708,-24000,183,51,2,0,1,1,0,125,2,109,28,13,28,231,115,10,1,0,0,0,1,1,0,1,1,0,1,0,1,0,0,0,0,0,0,0,0,0,0,0,0,0,0,0,0,0,0,0,0,0,0,0,0,0,0,0,0,0,0,0,0,0,0,0,0,0,0,0,0,0,0,0,0,0,0,0,0,0,0,0,0,0,0,0,0,0
209.1,-22116,11948,-32768,32767,15708,-24000,183,51,2,0,1,1,0,125,2,109,28,13,28,231,115,10,1,0,0,0,1,1,0,1,1,0,1,0,1,0,0,0,0,0,0,0,0,0,0,0,0,0,0,0,0,0,0,0,0,0,0,0,0,0,0,0,0,0,0,0,0,0,0,0,0,0,0,0,0,0,0,0,0,0,0,0,0,0,0,0,0,0,0,0,0,0
209.11,-22116,11948,-32768,32767,15708,-24000,183,51,2,0,1,1,0,125,2,109,28,13,28,231,115,10,1,0,0,0,1,1,0,1,1,0,1,0,1,0,0,0,0,0,0,0,0,0,0,0,0,0,0,0,0,0,0,0,0,0,0,0,0,0,0,0,0,0,0,0,0,0,0,0,0,0,0,0,0,0,0,0,0,0,0,0,0,0,0,0,0,0,0,0,0,0
209.12,-22116,11948,-32768,32767,15708,-24000,183,51,2,0,1,1,0,125,2,109,28,13,28,231,115,10,1,0,0,0,1,1,0,1,1,0,1,0,1,0,0,0,0,0,0,0,0,0,0,0,0,0,0,0,0,0,0,0,0,0,0,0,0,0,0,0,0,0,0,0,0,0,0,0,0,0,0,0,0,0,0,0,0,0,0,0,0,0,0,0,0,0,0,0,0,0
209.13,-22116,11948,-32768,32767,15708,-24000,183,51,2,0,1,1,0,125,2,109,28,13,28,231,115,10,1,0,0,0,1,1,0,1,1,0,1,0,1,0,0,0,0,0,0,0,0,0,0,0,0,0,0,0,0,0,0,0,0,0,0,0,0,0,0,0,0,0,0,0,0,0,0,0,0,0,0,0,0,0,0,0,0,0,0,0,0,0,0,0,0,0,0,0,0,0
209.14,-17320,22732,-32768,32767,30292,-22855,2,1,1,0,1,0,1,0,2,1,1,163,115,201,0,0,3,3,0,0,3,1,0,3,4,1,5,8,3,3,0,0,2,0,0,3,1,0,3,3,0,0,0,0,0,0,0,0,0,0,0,0,0,0,0,0,0,0,0,0,0,0,0,0,0,0,0,0,0,0,0,0,0,0,0,0,0,0,0,0,0,0,0,0,0,0
209.15,-21868,32767,4664,32767,32767,-22360,10,2,0,0,11,2,0,11,9,1,0,15,10,2,0,16,9,4,0,0,4,0,18,9,0,2,8,3,8,2,0,2,4,0,2,8,0,2,8,6,0,0,0,0,0,0,0,0,0,0,0,0,0,0,0,0,0,0,0,0,0,0,0,0,0,0,0,0,0,0,0,0,0,0,0,0,0,0,0,0,0,0,0,0,0,0
209.16,-1744,16240,-11892,-31500,-15156,11929,2,3,3,0,2,4,2,0,2,1,3,3,1,5,2,0,0,1,1,1,2,3,2,0,3,1,5,3,3,2,2,0,2,3,0,3,2,1,4,5,0,0,0,0,0,0,0,0,0,0,0,0,0,0,0,0,0,0,0,0,0,0,0,0,0,0,0,0,0,0,0,0,0,0,0,0,0,0,0,0,0,0,0,0,0,0
209.17,-2304,14916,-12968,-32768,-13671,12488,2,3,2,0,1,3,2,1,2,2,2,0,2,3,2,2,2,2,4,0,3,3,1,3,2,1,5,3,3,4,3,1,3,3,0,2,2,0,1,4,0,0,0,0,0,0,0,0,0,0,0,0,0,0,0,0,0,0,0,0,0,0,0,0,0,0,0,0,0,0,0,0,0,0,0,0,0,0,0,0,0,0,0,0,0,0
209.18,-2304,14916,-12968,-32768,-13671,12488,2,3,2,0,1,3,2,1,2,2,2,0,2,3,2,2,2,2,4,0,3,3,1,3,2,1,5,3,3,4,3,1,3,3,0,2,2,0,1,4,0,0,0,0,0,0,0,0,0,0,0,0,0,0,0,0,0,0,0,0,0,0,0,0,0,0,0,0,0,0,0,0,0,0,0,0,0,0,0,0,0,0,0,0,0,0
209.19,-2304,14916,-12968,-32768,-13671,12488,2,3,2,0,1,3,2,1,2,2,2,0,2,3,2,2,2,2,4,0,3,3,1,3,2,1,5,3,3,4,3,1,3,3,0,2,2,0,1,4,0,0,0,0,0,0,0,0,0,0,0,0,0,0,0,0,0,0,0,0,0,0,0,0,0,0,0,0,0,0,0,0,0,0,0,0,0,0,0,0,0,0,0,0,0,0
209.2,-2304,14916,-12968,-32768,-13671,12488,2,3,2,0,1,3,2,1,2,2,2,0,2,3,2,2,2,2,4,0,3,3,1,3,2,1,5,3,3,4,3,1,3,3,0,2,2,0,1,4,0,0,0,0,0,0,0,0,0,0,0,0,0,0,0,0,0,0,0,0,0,0,0,0,0,0,0,0,0,0,0,0,0,0,0,0,0,0,0,0,0,0,0,0,0,0
209.21,-2304,14916,-12968,-32768,-13671,12488,2,3,2,0,1,3,2,1,2,2,2,0,2,3,2,2,2,2,4,0,3,3,1,3,2,1,5,3,3,4,3,1,3,3,0,2,2,0,1,4,0,0,0,0,0,0,0,0,0,0,0,0,0,0,0,0,0,0,0,0,0,0,0,0,0,0,0,0,0,0,0,0,0,0,0,0,0,0,0,0,0,0,0,0,0,0
209.22,-2724,13476,-15152,-32768,-12896,11961,2,3,3,0,3,4,1,11,1,3,2,12,3,5,3,13,2,4,2,0,4,2,18,3,4,0,3,3,3,3,3,14,3,3,4,3,3,2,1,2,0,0,0,0,0,0,0,0,0,0,0,0,0,0,0,0,0,0,0,0,0,0,0,0,0,0,0,0,0,0,0,0,0,0,0,0,0,0,0,0,0,0,0,0,0,0
209.23,-3072,12084,-17560,-32768,-13247,10830,3,0,3,0,3,3,3,11,2,2,3,13,1,2,3,0,3,2,3,0,2,2,18,1,3,0,2,4,2,3,3,14,2,3,3,2,3,3,2,3,0,0,0,0,0,0,0,0,0,0,0,0,0,0,0,0,0,0,0,0,0,0,0,0,0,0,0,0,0,0,0,0,0,0,0,0,0,0,0,0,0,0,0,0,0,0
209.24,-3920,-1092,-15848,787,2708,-327,0,1,0,0,1,0,0,0,14,99,15,9,45,138,110,14,1,0,0,0,45,4,6,8,0,0,0,0,31,219,245,9,49,111,201,230,53,236,155,225,0,0,0,0,0,0,0,0,0,0,0,0,0,0,0,0,0,0,0,0,0,0,0,0,0,0,0,0,0,0,0,0,0,0,0,0,0,0,0,0,0,0,0,0,0,0
209.25,-3264,-1528,-15616,1315,2793,-292,0,0,0,0,0,0,0,0,10,54,238,7,45,151,90,12,0,0,1,0,47,248,5,7,0,0,0,0,28,197,240,234,75,121,204,237,83,10,153,223,0,0,0,0,0,0,0,0,0,0,0,0,0,0,0,0,0,0,0,0,0,0,0,0,0,0,0,0,0,0,0,0,0,0,0,0,0,0,0,0,0,0,0,0,0,0
209.26,-3264,-1528,-15616,1315,2793,-292,0,0,0,0,0,0,0,0,10,54,238,7,45,151,90,12,0,0,1,0,47,248,5,7,0,0,0,0,28,197,240,234,75,121,204,237,83,10,153,223,0,0,0,0,0,0,0,0,0,0,0,0,0,0,0,0,0,0,0,0,0,0,0,0,0,0,0,0,0,0,0,0,0,0,0,0,0,0,0,0,0,0,0,0,0,0
209.27,-3264,-1528,-15616,1315,2793,-292,0,0,0,0,0,0,0,0,10,54,238,7,45,151,90,12,0,0,1,0,47,248,5,7,0,0,0,0,28,197,240,234,75,121,204,237,83,10,153,223,0,0,0,0,0,0,0,0,0,0,0,0,0,0,0,0,0,0,0,0,0,0,0,0,0,0,0,0,0,0,0,0,0,0,0,0,0,0,0,0,0,0,0,0,0,0
209.28,-3264,-1528,-15616,1315,2793,-292,0,0,0,0,0,0,0,0,10,54,238,7,45,151,90,12,0,0,1,0,47,248,5,7,0,0,0,0,28,197,240,234,75,121,204,237,83,10,153,223,0,0,0,0,0,0,0,0,0,0,0,0,0,0,0,0,0,0,0,0,0,0,0,0,0,0,0,0,0,0,0,0,0,0,0,0,0,0,0,0,0,0,0,0,0,0
209.29,-3264,-1528,-15616,1315,2793,-292,0,0,0,0,0,0,0,0,10,54,238,7,45,151,90,12,0,0,1,0,47,248,5,7,0,0,0,0,28,197,240,234,75,121,204,237,83,10,153,223,0,0,0,0,0,0,0,0,0,0,0,0,0,0,0,0,0,0,0,0,0,0,0,0,0,0,0,0,0,0,0,0,0,0,0,0,0,0,0,0,0,0,0,0,0,0
209.3,-3264,-1528,-15616,1315,2793,-292,0,0,0,0,0,0,0,0,10,54,238,7,45,151,90,12,0,0,1,0,47,248,5,7,0,0,0,0,28,197,240,234,75,121,204,237,83,10,153,223,0,0,0,0,0,0,0,0,0,0,0,0,0,0,0,0,0,0,0,0,0,0,0,0,0,0,0,0,0,0,0,0,0,0,0,0,0,0,0,0,0,0,0,0,0,0
209.31,-3264,-1528,-15616,1315,2793,-292,0,0,0,0,0,0,0,0,10,54,238,7,45,151,90,12,0,0,1,0,47,248,5,7,0,0,0,0,28,197,240,234,75,121,204,237,83,10,153,223,0,0,0,0,0,0,0,0,0,0,0,0,0,0,0,0,0,0,0,0,0,0,0,0,0,0,0,0,0,0,0,0,0,0,0,0,0,0,0,0,0,0,0,0,0,0
209.32,-3264,-1528,-15616,1315,2793,-292,0,0,0,0,0,0,0,0,10,54,238,7,45,151,90,12,0,0,1,0,47,248,5,7,0,0,0,0,28,197,240,234,75,121,204,237,83,10,153,223,0,0,0,0,0,0,0,0,0,0,0,0,0,0,0,0,0,0,0,0,0,0,0,0,0,0,0,0,0,0,0,0,0,0,0,0,0,0,0,0,0,0,0,0,0,0
209.33,-3264,-1528,-15616,1315,2793,-292,0,0,0,0,0,0,0,0,10,54,238,7,45,151,90,12,0,0,1,0,47,248,5,7,0,0,0,0,28,197,240,234,75,121,204,237,83,10,153,223,0,0,0,0,0,0,0,0,0,0,0,0,0,0,0,0,0,0,0,0,0,0,0,0,0,0,0,0,0,0,0,0,0,0,0,0,0,0,0,0,0,0,0,0,0,0
209.34,-3264,-1528,-15616,1315,2793,-292,0,0,0,0,0,0,0,0,10,54,238,7,45,151,90,12,0,0,1,0,47,248,5,7,0,0,0,0,28,197,240,234,75,121,204,237,83,10,153,223,0,0,0,0,0,0,0,0,0,0,0,0,0,0,0,0,0,0,0,0,0,0,0,0,0,0,0,0,0,0,0,0,0,0,0,0,0,0,0,0,0,0,0,0,0,0
209.35,-3264,-1528,-15616,1315,2793,-292,0,0,0,0,0,0,0,0,10,54,238,7,45,151,90,12,0,0,1,0,47,248,5,7,0,0,0,0,28,197,240,234,75,121,204,237,83,10,153,223,0,0,0,0,0,0,0,0,0,0,0,0,0,0,0,0,0,0,0,0,0,0,0,0,0,0,0,0,0,0,0,0,0,0,0,0,0,0,0,0,0,0,0,0,0,0
209.36,-3264,-1528,-15616,1315,2793,-292,0,0,0,0,0,0,0,0,10,54,238,7,45,151,90,12,0,0,1,0,47,248,5,7,0,0,0,0,28,197,240,234,75,121,204,237,83,10,153,223,0,0,0,0,0,0,0,0,0,0,0,0,0,0,0,0,0,0,0,0,0,0,0,0,0,0,0,0,0,0,0,0,0,0,0,0,0,0,0,0,0,0,0,0,0,0
209.37,-2688,-2360,-15460,1684,2752,-260,0,0,1,0,0,1,0,0,8,68,236,6,45,145,98,12,0,1,0,0,42,218,4,6,0,0,0,0,26,207,251,197,82,115,175,239,75,85,151,194,0,0,0,0,0,0,0,0,0,0,0,0,0,0,0,0,0,0,0,0,0,0,0,0,0,0,0,0,0,0,0,0,0,0,0,0,0,0,0,0,0,0,0,0,0,0
209.38,-2688,-2360,-15460,1684,2752,-260,0,0,1,0,0,1,0,0,8,68,236,6,45,145,98,12,0,1,0,0,42,218,4,6,0,0,0,0,26,207,251,197,82,115,175,239,75,85,151,194,0,0,0,0,0,0,0,0,0,0,0,0,0,0,0,0,0,0,0,0,0,0,0,0,0,0,0,0,0,0,0,0,0,0,0,0,0,0,0,0,0,0,0,0,0,0
209.39,-2688,-2360,-15460,1684,2752,-260,0,0,1,0,0,1,0,0,8,68,236,6,45,145,98,12,0,1,0,0,42,218,4,6,0,0,0,0,26,207,251,197,82,115,175,239,75,85,151,194,0,0,0,0,0,0,0,0,0,0,0,0,0,0,0,0,0,0,0,0,0,0,0,0,0,0,0,0,0,0,0,0,0,0,0,0,0,0,0,0,0,0,0,0,0,0
209.4,-2688,-2360,-15460,1684,2752,-260,0,0,1,0,0,1,0,0,8,68,236,6,45,145,98,12,0,1,0,0,42,218,4,6,0,0,0,0,26,207,251,197,82,115,175,239,75,85,151,194,0,0,0,0,0,0,0,0,0,0,0,0,0,0,0,0,0,0,0,0,0,0,0,0,0,0,0,0,0,0,0,0,0,0,0,0,0,0,0,0,0,0,0,0,0,0
209.41,-2688,-2360,-15460,1684,2752,-260,0,0,1,0,0,1,0,0,8,68,236,6,45,145,98,12,0,1,0,0,42,218,4,6,0,0,0,0,26,207,251,197,82,115,175,239,75,85,151,194,0,0,0,0,0,0,0,0,0,0,0,0,0,0,0,0,0,0,0,0,0,0,0,0,0,0,0,0,0,0,0,0,0,0,0,0,0,0,0,0,0,0,0,0,0,0
209.42,-2688,-2360,-15460,1684,2752,-260,0,0,1,0,0,1,0,0,8,68,236,6,45,145,98,12,0,1,0,0,42,218,4,6,0,0,0,0,26,207,251,197,82,115,175,239,75,85,151,194,0,0,0,0,0,0,0,0,0,0,0,0,0,0,0,0,0,0,0,0,0,0,0,0,0,0,0,0,0,0,0,0,0,0,0,0,0,0,0,0,0,0,0,0,0,0
209.43,-2688,-2360,-15460,1684,2752,-260,0,0,1,0,0,1,0,0,8,68,236,6,45,145,98,12,0,1,0,0,42,218,4,6,0,0,0,0,26,207,251,197,82,115,175,239,75,85,151,194,0,0,0,0,0,0,0,0,0,0,0,0,0,0,0,0,0,0,0,0,0,0,0,0,0,0,0,0,0,0,0,0,0,0,0,0,0,0,0,0,0,0,0,0,0,0
209.44,-2688,-2360,-15460,1684,2752,-260,0,0,1,0,0,1,0,0,8,68,236,6,45,145,98,12,0,1,0,0,42,218,4,6,0,0,0,0,26,207,251,197,82,115,175,239,75,85,151,194,0,0,0,0,0,0,0,0,0,0,0,0,0,0,0,0,0,0,0,0,0,0,0,0,0,0,0,0,0,0,0,0,0,0,0,0,0,0,0,0,0,0,0,0,0,0
209.45,-2688,-2360,-15460,1684,2752,-260,0,0,1,0,0,1,0,0,8,68,236,6,45,145,98,12,0,1,0,0,42,218,4,6,0,0,0,0,26,207,251,197,82,115,175,239,75,85,151,194,0,0,0,0,0,0,0,0,0,0,0,0,0,0,0,0,0,0,0,0,0,0,0,0,0,0,0,0,0,0,0,0,0,0,0,0,0,0,0,0,0,0,0,0,0,0
209.46,-2688,-2360,-15460,1684,2752,-260,0,0,1,0,0,1,0,0,8,68,236,6,45,145,98,12,0,1,0,0,42,218,4,6,0,0,0,0,26,207,251,197,82,115,175,239,75,85,151,194,0,0,0,0,0,0,0,0,0,0,0,0,0,0,0,0,0,0,0,0,0,0,0,0,0,0,0,0,0,0,0,0,0,0,0,0,0,0,0,0,0,0,0,0,0,0
209.47,-2688,-2360,-15460,1684,2752,-260,0,0,1,0,0,1,0,0,8,68,236,6,45,145,98,12,0,1,0,0,42,218,4,6,0,0,0,0,26,207,251,197,82,115,175,239,75,85,151,194,0,0,0,0,0,0,0,0,0,0,0,0,0,0,0,0,0,0,0,0,0,0,0,0,0,0,0,0,0,0,0,0,0,0,0,0,0,0,0,0,0,0,0,0,0,0
209.48,-2688,-2360,-15460,1684,2752,-260,0,0,1,0,0,1,0,0,8,68,236,6,45,145,98,12,0,1,0,0,42,218,4,6,0,0,0,0,26,207,251,197,82,115,175,239,75,85,151,194,0,0,0,0,0,0,0,0,0,0,0,0,0,0,0,0,0,0,0,0,0,0,0,0,0,0,0,0,0,0,0,0,0,0,0,0,0,0,0,0,0,0,0,0,0,0
209.49,-2688,-2360,-15460,1684,2752,-260,0,0,1,0,0,1,0,0,8,68,236,6,45,145,98,12,0,1,0,0,42,218,4,6,0,0,0,0,26,207,251,197,82,115,175,239,75,85,151,194,0,0,0,0,0,0,0,0,0,0,0,0,0,0,0,0,0,0,0,0,0,0,0,0,0,0,0,0,0,0,0,0,0,0,0,0,0,0,0,0,0,0,0,0,0,0
209.5,-2688,-2360,-15460,1684,2752,-260,0,0,1,0,0,1,0,0,8,68,236,6,45,145,98,12,0,1,0,0,42,218,4,6,0,0,0,0,26,207,251,197,82,115,175,239,75,85,151,194,0,0,0,0,0,0,0,0,0,0,0,0,0,0,0,0,0,0,0,0,0,0,0,0,0,0,0,0,0,0,0,0,0,0,0,0,0,0,0,0,0,0,0,0,0,0
209.51,-2688,-2360,-15460,1684,2752,-260,0,0,1,0,0,1,0,0,8,68,236,6,45,145,98,12,0,1,0,0,42,218,4,6,0,0,0,0,26,207,251,197,82,115,175,239,75,85,151,194,0,0,0,0,0,0,0,0,0,0,0,0,0,0,0,0,0,0,0,0,0,0,0,0,0,0,0,0,0,0,0,0,0,0,0,0,0,0,0,0,0,0,0,0,0,0
209.52,-2572,-2148,-15040,2085,2768,-218,0,0,1,0,0,0,0,0,8,84,249,7,48,164,130,11,0,1,0,0,43,238,4,6,1,0,0,0,24,199,251,164,45,67,138,227,58,145,160,196,0,0,0,0,0,0,0,0,0,0,0,0,0,0,0,0,0,0,0,0,0,0,0,0,0,0,0,0,0,0,0,0,0,0,0,0,0,0,0,0,0,0,0,0,0,0
209.53,-2628,-2616,-15132,2235,3123,-515,0,0,0,0,1,0,0,0,10,70,169,7,159,227,201,15,0,0,0,0,50,224,3,4,0,0,0,0,16,171,163,168,230,199,236,203,25,32,70,232,0,0,0,0,0,0,0,0,0,0,0,0,0,0,0,0,0,0,0,0,0,0,0,0,0,0,0,0,0,0,0,0,0,0,0,0,0,0,0,0,0,0,0,0,0,0
209.54,-2628,-2616,-15132,2235,3123,-515,0,0,0,0,1,0,0,0,10,70,169,7,159,227,201,15,0,0,0,0,50,224,3,4,0,0,0,0,16,171,163,168,230,199,236,203,25,32,70,232,0,0,0,0,0,0,0,0,0,0,0,0,0,0,0,0,0,0,0,0,0,0,0,0,0,0,0,0,0,0,0,0,0,0,0,0,0,0,0,0,0,0,0,0,0,0
209.55,-2628,-2616,-15132,2235,3123,-515,0,0,0,0,1,0,0,0,10,70,169,7,159,227,201,15,0,0,0,0,50,224,3,4,0,0,0,0,16,171,163,168,230,199,236,203,25,32,70,232,0,0,0,0,0,0,0,0,0,0,0,0,0,0,0,0,0,0,0,0,0,0,0,0,0,0,0,0,0,0,0,0,0,0,0,0,0,0,0,0,0,0,0,0,0,0
209.56,-2628,-2616,-15132,2235,3123,-515,0,0,0,0,1,0,0,0,10,70,169,7,159,227,201,15,0,0,0,0,50,224,3,4,0,0,0,0,16,171,163,168,230,199,236,203,25,32,70,232,0,0,0,0,0,0,0,0,0,0,0,0,0,0,0,0,0,0,0,0,0,0,0,0,0,0,0,0,0,0,0,0,0,0,0,0,0,0,0,0,0,0,0,0,0,0
209.57,-2628,-2616,-15132,2235,3123,-515,0,0,0,0,1,0,0,0,10,70,169,7,159,227,201,15,0,0,0,0,50,224,3,4,0,0,0,0,16,171,163,168,230,199,236,203,25,32,70,232,0,0,0,0,0,0,0,0,0,0,0,0,0,0,0,0,0,0,0,0,0,0,0,0,0,0,0,0,0,0,0,0,0,0,0,0,0,0,0,0,0,0,0,0,0,0
209.58,-2628,-2616,-15132,2235,3123,-515,0,0,0,0,1,0,0,0,10,70,169,7,159,227,201,15,0,0,0,0,50,224,3,4,0,0,0,0,16,171,163,168,230,199,236,203,25,32,70,232,0,0,0,0,0,0,0,0,0,0,0,0,0,0,0,0,0,0,0,0,0,0,0,0,0,0,0,0,0,0,0,0,0,0,0,0,0,0,0,0,0,0,0,0,0,0
209.59,-1720,-1208,-14704,1869,2700,-491,0,1,1,0,0,0,0,0,12,152,224,8,196,26,20,15,0,0,0,0,53,226,2,4,0,0,0,0,15,179,150,172,216,168,242,171,192,15,64,97,0,0,0,0,0,0,0,0,0,0,0,0,0,0,0,0,0,0,0,0,0,0,0,0,0,0,0,0,0,0,0,0,0,0,0,0,0,0,0,0,0,0,0,0,0,0
209.6,-1508,-1884,-14864,1727,2290,-506,0,0,1,0,0,0,1,0,11,218,18,8,4,52,71,15,0,0,0,0,56,239,2,4,0,0,0,1,15,185,136,200,208,137,234,139,132,254,21,1,0,0,0,0,0,0,0,0,0,0,0,0,0,0,0,0,0,0,0,0,0,0,0,0,0,0,0,0,0,0,0,0,0,0,0,0,0,0,0,0,0,0,0,0,0,0
209.61,-1508,-1884,-14864,1727,2290,-506,0,0,1,0,0,0,1,0,11,218,18,8,4,52,71,15,0,0,0,0,56,239,2,4,0,0,0,1,15,185,136,200,208,137,234,139,132,254,21,1,0,0,0,0,0,0,0,0,0,0,0,0,0,0,0,0,0,0,0,0,0,0,0,0,0,0,0,0,0,0,0,0,0,0,0,0,0,0,0,0,0,0,0,0,0,0
209.62,-1508,-1884,-14864,1727,2290,-506,0,0,1,0,0,0,1,0,11,218,18,8,4,52,71,15,0,0,0,0,56,239,2,4,0,0,0,1,15,185,136,200,208,137,234,139,132,254,21,1,0,0,0,0,0,0,0,0,0,0,0,0,0,0,0,0,0,0,0,0,0,0,0,0,0,0,0,0,0,0,0,0,0,0,0,0,0,0,0,0,0,0,0,0,0,0
209.63,-1508,-1884,-14864,1727,2290,-506,0,0,1,0,0,0,1,0,11,218,18,8,4,52,71,15,0,0,0,0,56,239,2,4,0,0,0,1,15,185,136,200,208,137,234,139,132,254,21,1,0,0,0,0,0,0,0,0,0,0,0,0,0,0,0,0,0,0,0,0,0,0,0,0,0,0,0,0,0,0,0,0,0,0,0,0,0,0,0,0,0,0,0,0,0,0
209.64,-1508,-1884,-14864,1727,2290,-506,0,0,1,0,0,0,1,0,11,218,18,8,4,52,71,15,0,0,0,0,56,239,2,4,0,0,0,1,15,185,136,200,208,137,234,139,132,254,21,1,0,0,0,0,0,0,0,0,0,0,0,0,0,0,0,0,0,0,0,0,0,0,0,0,0,0,0,0,0,0,0,0,0,0,0,0,0,0,0,0,0,0,0,0,0,0
209.65,-1508,-1884,-14864,1727,2290,-506,0,0,1,0,0,0,1,0,11,218,18,8,4,52,71,15,0,0,0,0,56,239,2,4,0,0,0,1,15,185,136,200,208,137,234,139,132,254,21,1,0,0,0,0,0,0,0,0,0,0,0,0,0,0,0,0,0,0,0,0,0,0,0,0,0,0,0,0,0,0,0,0,0,0,0,0,0,0,0,0,0,0,0,0,0,0
209.66,-1508,-1884,-14864,1727,2290,-506,0,0,1,0,0,0,1,0,11,218,18,8,4,52,71,15,0,0,0,0,56,239,2,4,0,0,0,1,15,185,136,200,208,137,234,139,132,254,21,1,0,0,0,0,0,0,0,0,0,0,0,0,0,0,0,0,0,0,0,0,0,0,0,0,0,0,0,0,0,0,0,0,0,0,0,0,0,0,0,0,0,0,0,0,0,0
209.67,-1528,-2488,-14972,1694,1963,-377,0,1,1,0,0,0,0,0,83,23,84,61,108,115,114,15,0,0,0,0,60,14,2,5,0,0,0,1,14,176,115,212,184,122,185,77,34,235,171,163,0,0,0,0,0,0,0,0,0,0,0,0,0,0,0,0,0,0,0,0,0,0,0,0,0,0,0,0,0,0,0,0,0,0,0,0,0,0,0,0,0,0,0,0,0,0
209.68,-11368,6364,-32768,32767,-2830,-9867,90,27,193,48,74,47,157,185,143,237,190,95,112,49,201,93,0,1,0,0,106,222,17,48,28,0,3,3,1,1,0,0,1,1,0,1,0,0,0,0,0,0,0,0,0,0,0,0,0,0,0,0,0,0,0,0,0,0,0,0,0,0,0,0,0,0,0,0,0,0,0,0,0,0,0,0,0,0,0,0,0,0,0,0,0,0
209.69,-11000,4144,-32768,32767,-2091,-12269,147,68,221,96,96,39,99,168,80,218,152,59,95,12,18,99,0,0,0,0,131,227,20,47,0,0,0,1,1,1,1,0,1,1,0,0,1,0,0,0,0,0,0,0,0,0,0,0,0,0,0,0,0,0,0,0,0,0,0,0,0,0,0,0,0,0,0,0,0,0,0,0,0,0,0,0,0,0,0,0,0,0,0,0,0,0
209.7,-17696,5824,-32768,32767,3126,-13176,0,131,7,163,99,37,19,134,27,155,42,243,43,242,252,143,0,0,0,0,166,146,17,43,0,0,0,0,1,1,0,0,0,1,0,0,0,0,0,0,0,0,0,0,0,0,0,0,0,0,0,0,0,0,0,0,0,0,0,0,0,0,0,0,0,0,0,0,0,0,0,0,0,0,0,0,0,0,0,0,0,0,0,0,0,0
209.71,-17696,5824,-32768,32767,3126,-13176,0,131,7,163,99,37,19,134,27,155,42,243,43,242,252,143,0,0,0,0,166,146,17,43,0,0,0,0,1,1,0,0,0,1,0,0,0,0,0,0,0,0,0,0,0,0,0,0,0,0,0,0,0,0,0,0,0,0,0,0,0,0,0,0,0,0,0,0,0,0,0,0,0,0,0,0,0,0,0,0,0,0,0,0,0,0
209.72,-17696,5824,-32768,32767,3126,-13176,0,131,7,163,99,37,19,134,27,155,42,243,43,242,252,143,0,0,0,0,166,146,17,43,0,0,0,0,1,1,0,0,0,1,0,0,0,0,0,0,0,0,0,0,0,0,0,0,0,0,0,0,0,0,0,0,0,0,0,0,0,0,0,0,0,0,0,0,0,0,0,0,0,0,0,0,0,0,0,0,0,0,0,0,0,0
209.73,-17696,5824,-32768,32767,3126,-13176,0,131,7,163,99,37,19,134,27,155,42,243,43,242,252,143,0,0,0,0,166,146,17,43,0,0,0,0,1,1,0,0,0,1,0,0,0,0,0,0,0,0,0,0,0,0,0,0,0,0,0,0,0,0,0,0,0,0,0,0,0,0,0,0,0,0,0,0,0,0,0,0,0,0,0,0,0,0,0,0,0,0,0,0,0,0
209.74,-17696,5824,-32768,32767,3126,-13176,0,131,7,163,99,37,19,134,27,155,42,243,43,242,252,143,0,0,0,0,166,146,17,43,0,0,0,0,1,1,0,0,0,1,0,0,0,0,0,0,0,0,0,0,0,0,0,0,0,0,0,0,0,0,0,0,0,0,0,0,0,0,0,0,0,0,0,0,0,0,0,0,0,0,0,0,0,0,0,0,0,0,0,0,0,0
209.75,-17696,5824,-32768,32767,3126,-13176,0,131,7,163,99,37,19,134,27,155,42,243,43,242,252,143,0,0,0,0,166,146,17,43,0,0,0,0,1,1,0,0,0,1,0,0,0,0,0,0,0,0,0,0,0,0,0,0,0,0,0,0,0,0,0,0,0,0,0,0,0,0,0,0,0,0,0,0,0,0,0,0,0,0,0,0,0,0,0,0,0,0,0,0,0,0
209.76,-17696,5824,-32768,32767,3126,-13176,0,131,7,163,99,37,19,134,27,155,42,243,43,242,252,143,0,0,0,0,166,146,17,43,0,0,0,0,1,1,0,0,0,1,0,0,0,0,0,0,0,0,0,0,0,0,0,0,0,0,0,0,0,0,0,0,0,0,0,0,0,0,0,0,0,0,0,0,0,0,0,0,0,0,0,0,0,0,0,0,0,0,0,0,0,0
209.77,-17696,5824,-32768,32767,3126,-13176,0,131,7,163,99,37,19,134,27,155,42,243,43,242,252,143,0,0,0,0,166,146,17,43,0,0,0,0,1,1,0,0,0,1,0,0,0,0,0,0,0,0,0,0,0,0,0,0,0,0,0,0,0,0,0,0,0,0,0,0,0,0,0,0,0,0,0,0,0,0,0,0,0,0,0,0,0,0,0,0,0,0,0,0,0,0
209.78,-17696,5824,-32768,32767,3126,-13176,0,131,7,163,99,37,19,134,27,155,42,243,43,242,252,143,0,0,0,0,166,146,17,43,0,0,0,0,1,1,0,0,0,1,0,0,0,0,0,0,0,0,0,0,0,0,0,0,0,0,0,0,0,0,0,0,0,0,0,0,0,0,0,0,0,0,0,0,0,0,0,0,0,0,0,0,0,0,0,0,0,0,0,0,0,0
209.79,-17696,5824,-32768,32767,3126,-13176,0,131,7,163,99,37,19,134,27,155,42,243,43,242,252,143,0,0,0,0,166,146,17,43,0,0,0,0,1,1,0,0,0,1,0,0,0,0,0,0,0,0,0,0,0,0,0,0,0,0,0,0,0,0,0,0,0,0,0,0,0,0,0,0,0,0,0,0,0,0,0,0,0,0,0,0,0,0,0,0,0,0,0,0,0,0
209.8,-17696,5824,-32768,32767,3126,-13176,0,131,7,163,99,37,19,134,27,155,42,243,43,242,252,143,0,0,0,0,166,146,17,43,0,0,0,0,1,1,0,0,0,1,0,0,0,0,0,0,0,0,0,0,0,0,0,0,0,0,0,0,0,0,0,0,0,0,0,0,0,0,0,0,0,0,0,0,0,0,0,0,0,0,0,0,0,0,0,0,0,0,0,0,0,0
209.81,-17696,5824,-32768,32767,3126,-13176,0,131,7,163,99,37,19,134,27,155,42,243,43,242,252,143,0,0,0,0,166,146,17,43,0,0,0,0,1,1,0,0,0,1,0,0,0,0,0,0,0,0,0,0,0,0,0,0,0,0,0,0,0,0,0,0,0,0,0,0,0,0,0,0,0,0,0,0,0,0,0,0,0,0,0,0,0,0,0,0,0,0,0,0,0,0
209.82,-21248,31116,-32768,32767,21488,-24798,9,4,0,0,10,6,0,0,11,3,0,2,10,0,0,0,9,1,0,0,6,0,2,10,0,1,9,5,9,5,0,0,0,0,0,11,0,0,10,3,0,0,0,0,0,0,0,0,0,0,0,0,0,0,0,0,0,0,0,0,0,0,0,0,0,0,0,0,0,0,0,0,0,0,0,0,0,0,0,0,0,0,0,0,0,0
209.83,-11064,32767,6772,32767,23895,-28408,5,6,1,5,6,5,2,12,6,4,1,17,7,3,0,2,4,4,0,2,4,0,1,6,0,2,5,5,5,8,1,2,6,1,1,5,2,0,5,5,0,0,0,0,0,0,0,0,0,0,0,0,0,0,0,0,0,0,0,0,0,0,0,0,0,0,0,0,0,0,0,0,0,0,0,0,0,0,0,0,0,0,0,0,0,0
209.84,-12168,22172,-10488,-23567,-7932,-3016,2,3,2,0,3,2,2,1,0,2,3,0,2,2,4,1,1,2,3,0,3,3,2,2,3,1,1,3,2,3,3,1,2,3,1,3,3,1,2,2,0,0,0,0,0,0,0,0,0,0,0,0,0,0,0,0,0,0,0,0,0,0,0,0,0,0,0,0,0,0,0,0,0,0,0,0,0,0,0,0,0,0,0,0,0,0
209.85,-8620,21096,-10828,-28349,-15645,-954,2,3,2,1,2,2,3,12,2,2,2,15,2,2,2,15,2,1,2,0,2,3,17,4,2,7,3,3,0,3,3,6,0,2,4,2,3,4,2,2,0,0,0,0,0,0,0,0,0,0,0,0,0,0,0,0,0,0,0,0,0,0,0,0,0,0,0,0,0,0,0,0,0,0,0,0,0,0,0,0,0,0,0,0,0,0
209.86,-4100,18980,-12416,-32768,-19360,1641,3,1,2,0,1,2,2,12,0,3,2,1,4,1,6,0,0,2,2,0,3,3,1,2,2,2,0,2,2,3,3,0,3,3,1,1,3,1,2,5,0,0,0,0,0,0,0,0,0,0,0,0,0,0,0,0,0,0,0,0,0,0,0,0,0,0,0,0,0,0,0,0,0,0,0,0,0,0,0,0,0,0,0,0,0,0
209.87,-4100,18980,-12416,-32768,-19360,1641,3,1,2,0,1,2,2,12,0,3,2,1,4,1,6,0,0,2,2,0,3,3,1,2,2,2,0,2,2,3,3,0,3,3,1,1,3,1,2,5,0,0,0,0,0,0,0,0,0,0,0,0,0,0,0,0,0,0,0,0,0,0,0,0,0,0,0,0,0,0,0,0,0,0,0,0,0,0,0,0,0,0,0,0,0,0
209.88,-4100,18980,-12416,-32768,-19360,1641,3,1,2,0,1,2,2,12,0,3,2,1,4,1,6,0,0,2,2,0,3,3,1,2,2,2,0,2,2,3,3,0,3,3,1,1,3,1,2,5,0,0,0,0,0,0,0,0,0,0,0,0,0,0,0,0,0,0,0,0,0,0,0,0,0,0,0,0,0,0,0,0,0,0,0,0,0,0,0,0,0,0,0,0,0,0
209.89,-1500,16672,-13692,-32768,-19419,5331,3,2,3,1,2,2,2,14,2,3,2,15,2,2,3,16,4,2,3,0,2,2,18,3,3,8,2,2,2,1,4,6,3,3,4,3,3,4,1,3,0,0,0,0,0,0,0,0,0,0,0,0,0,0,0,0,0,0,0,0,0,0,0,0,0,0,0,0,0,0,0,0,0,0,0,0,0,0,0,0,0,0,0,0,0,0
209.9,-1500,16672,-13692,-32768,-19419,5331,3,2,3,1,2,2,2,14,2,3,2,15,2,2,3,16,4,2,3,0,2,2,18,3,3,8,2,2,2,1,4,6,3,3,4,3,3,4,1,3,0,0,0,0,0,0,0,0,0,0,0,0,0,0,0,0,0,0,0,0,0,0,0,0,0,0,0,0,0,0,0,0,0,0,0,0,0,0,0,0,0,0,0,0,0,0
209.91,-1500,16672,-13692,-32768,-19419,5331,3,2,3,1,2,2,2,14,2,3,2,15,2,2,3,16,4,2,3,0,2,2,18,3,3,8,2,2,2,1,4,6,3,3,4,3,3,4,1,3,0,0,0,0,0,0,0,0,0,0,0,0,0,0,0,0,0,0,0,0,0,0,0,0,0,0,0,0,0,0,0,0,0,0,0,0,0,0,0,0,0,0,0,0,0,0
209.92,-1500,16672,-13692,-32768,-19419,5331,3,2,3,1,2,2,2,14,2,3,2,15,2,2,3,16,4,2,3,0,2,2,18,3,3,8,2,2,2,1,4,6,3,3,4,3,3,4,1,3,0,0,0,0,0,0,0,0,0,0,0,0,0,0,0,0,0,0,0,0,0,0,0,0,0,0,0,0,0,0,0,0,0,0,0,0,0,0,0,0,0,0,0,0,0,0
209.93,-1500,16672,-13692,-32768,-19419,5331,3,2,3,1,2,2,2,14,2,3,2,15,2,2,3,16,4,2,3,0,2,2,18,3,3,8,2,2,2,1,4,6,3,3,4,3,3,4,1,3,0,0,0,0,0,0,0,0,0,0,0,0,0,0,0,0,0,0,0,0,0,0,0,0,0,0,0,0,0,0,0,0,0,0,0,0,0,0,0,0,0,0,0,0,0,0
209.94,-1500,16672,-13692,-32768,-19419,5331,3,2,3,1,2,2,2,14,2,3,2,15,2,2,3,16,4,2,3,0,2,2,18,3,3,8,2,2,2,1,4,6,3,3,4,3,3,4,1,3,0,0,0,0,0,0,0,0,0,0,0,0,0,0,0,0,0,0,0,0,0,0,0,0,0,0,0,0,0,0,0,0,0,0,0,0,0,0,0,0,0,0,0,0,0,0
209.95,-1500,16672,-13692,-32768,-19419,5331,3,2,3,1,2,2,2,14,2,3,2,15,2,2,3,16,4,2,3,0,2,2,18,3,3,8,2,2,2,1,4,6,3,3,4,3,3,4,1,3,0,0,0,0,0,0,0,0,0,0,0,0,0,0,0,0,0,0,0,0,0,0,0,0,0,0,0,0,0,0,0,0,0,0,0,0,0,0,0,0,0,0,0,0,0,0
209.96,-1500,16672,-13692,-32768,-19419,5331,3,2,3,1,2,2,2,14,2,3,2,15,2,2,3,16,4,2,3,0,2,2,18,3,3,8,2,2,2,1,4,6,3,3,4,3,3,4,1,3,0,0,0,0,0,0,0,0,0,0,0,0,0,0,0,0,0,0,0,0,0,0,0,0,0,0,0,0,0,0,0,0,0,0,0,0,0,0,0,0,0,0,0,0,0,0
209.97,-776,-4084,-32768,-32768,-16663,18689,6,5,3,0,3,1,3,0,2,2,1,0,3,4,3,1,3,1,4,0,2,3,1,2,4,1,3,1,4,4,4,0,3,4,0,3,4,0,3,3,0,0,0,0,0,0,0,0,0,0,0,0,0,0,0,0,0,0,0,0,0,0,0,0,0,0,0,0,0,0,0,0,0,0,0,0,0,0,0,0,0,0,0,0,0,0
209.98,-1124,-8412,-32768,-32768,-16050,20242,2,3,4,1,3,2,3,12,4,3,4,15,3,5,3,15,3,5,3,0,8,1,16,2,4,7,2,2,4,3,6,8,4,6,5,4,2,4,3,4,0,0,0,0,0,0,0,0,0,0,0,0,0,0,0,0,0,0,0,0,0,0,0,0,0,0,0,0,0,0,0,0,0,0,0,0,0,0,0,0,0,0,0,0,0,0
209.99,-2980,-13912,-32768,-32768,-14011,20910,3,5,3,0,5,4,3,12,2,2,3,15,2,3,4,0,0,4,2,0,7,1,4,4,3,2,0,6,0,4,2,5,0,2,3,0,4,4,6,3,0,0,0,0,0,0,0,0,0,0,0,0,0,0,0,0,0,0,0,0,0,0,0,0,0,0,0,0,0,0,0,0,0,0,0,0,0,0,0,0,0,0,0,0,0,0
210,-6244,-19996,-32768,-32768,-10696,19908,7,4,5,0,5,3,6,14,7,5,4,15,2,0,5,0,3,3,3,0,5,4,3,5,4,3,3,5,4,3,3,6,1,4,4,4,4,2,3,6,0,0,0,0,0,0,0,0,0,0,0,0,0,0,0,0,0,0,0,0,0,0,0,0,0,0,0,0,0,0,0,0,0,0,0,0,0,0,0,0,0,0,0,0,0,0
210.01,-6244,-19996,-32768,-32768,-10696,19908,7,4,5,0,5,3,6,14,7,5,4,15,2,0,5,0,3,3,3,0,5,4,3,5,4,3,3,5,4,3,3,6,1,4,4,4,4,2,3,6,0,0,0,0,0,0,0,0,0,0,0,0,0,0,0,0,0,0,0,0,0,0,0,0,0,0,0,0,0,0,0,0,0,0,0,0,0,0,0,0,0,0,0,0,0,0
210.02,-6244,-19996,-32768,-32768,-10696,19908,7,4,5,0,5,3,6,14,7,5,4,15,2,0,5,0,3,3,3,0,5,4,3,5,4,3,3,5,4,3,3,6,1,4,4,4,4,2,3,6,0,0,0,0,0,0,0,0,0,0,0,0,0,0,0,0,0,0,0,0,0,0,0,0,0,0,0,0,0,0,0,0,0,0,0,0,0,0,0,0,0,0,0,0,0,0
210.03,-6244,-19996,-32768,-32768,-10696,19908,7,4,5,0,5,3,6,14,7,5,4,15,2,0,5,0,3,3,3,0,5,4,3,5,4,3,3,5,4,3,3,6,1,4,4,4,4,2,3,6,0,0,0,0,0,0,0,0,0,0,0,0,0,0,0,0,0,0,0,0,0,0,0,0,0,0,0,0,0,0,0,0,0,0,0,0,0,0,0,0,0,0,0,0,0,0
210.04,-2024,-32768,-32768,-32768,-25231,-3056,0,3,1,1,3,0,1,0,0,0,0,0,0,6,0,1,4,0,3,0,0,8,0,1,0,0,8,0,4,0,4,0,0,4,0,1,2,0,5,2,0,0,0,0,0,0,0,0,0,0,0,0,0,0,0,0,0,0,0,0,0,0,0,0,0,0,0,0,0,0,0,0,0,0,0,0,0,0,0,0,0,0,0,0,0,0
210.05,15668,-32768,-32160,-27305,-27518,-1933,5,1,2,1,4,1,2,13,2,3,4,15,3,2,4,14,0,2,1,0,5,1,16,1,2,6,2,0,3,2,2,8,6,3,4,0,2,0,2,4,0,0,0,0,0,0,0,0,0,0,0,0,0,0,0,0,0,0,0,0,0,0,0,0,0,0,0,0,0,0,0,0,0,0,0,0,0,0,0,0,0,0,0,0,0,0
210.06,7404,32767,-11952,32767,19896,-2870,0,1,0,0,0,1,1,0,0,1,1,0,0,1,2,0,0,0,0,0,2,180,0,1,1,0,1,1,0,1,1,0,32,19,170,230,111,13,207,98,0,0,0,0,0,0,0,0,0,0,0,0,0,0,0,0,0,0,0,0,0,0,0,0,0,0,0,0,0,0,0,0,0,0,0,0,0,0,0,0,0,0,0,0,0,0
210.07,7404,32767,-11952,32767,19896,-2870,0,1,0,0,0,1,1,0,0,1,1,0,0,1,2,0,0,0,0,0,2,180,0,1,1,0,1,1,0,1,1,0,32,19,170,230,111,13,207,98,0,0,0,0,0,0,0,0,0,0,0,0,0,0,0,0,0,0,0,0,0,0,0,0,0,0,0,0,0,0,0,0,0,0,0,0,0,0,0,0,0,0,0,0,0,0
210.08,7404,32767,-11952,32767,19896,-2870,0,1,0,0,0,1,1,0,0,1,1,0,0,1,2,0,0,0,0,0,2,180,0,1,1,0,1,1,0,1,1,0,32,19,170,230,111,13,207,98,0,0,0,0,0,0,0,0,0,0,0,0,0,0,0,0,0,0,0,0,0,0,0,0,0,0,0,0,0,0,0,0,0,0,0,0,0,0,0,0,0,0,0,0,0,0
210.09,7404,32767,-11952,32767,19896,-2870,0,1,0,0,0,1,1,0,0,1,1,0,0,1,2,0,0,0,0,0,2,180,0,1,1,0,1,1,0,1,1,0,32,19,170,230,111,13,207,98,0,0,0,0,0,0,0,0,0,0,0,0,0,0,0,0,0,0,0,0,0,0,0,0,0,0,0,0,0,0,0,0,0,0,0,0,0,0,0,0,0,0,0,0,0,0
210.1,7404,32767,-11952,32767,19896,-2870,0,1,0,0,0,1,1,0,0,1,1,0,0,1,2,0,0,0,0,0,2,180,0,1,1,0,1,1,0,1,1,0,32,19,170,230,111,13,207,98,0,0,0,0,0,0,0,0,0,0,0,0,0,0,0,0,0,0,0,0,0,0,0,0,0,0,0,0,0,0,0,0,0,0,0,0,0,0,0,0,0,0,0,0,0,0
210.11,7404,32767,-11952,32767,19896,-2870,0,1,0,0,0,1,1,0,0,1,1,0,0,1,2,0,0,0,0,0,2,180,0,1,1,0,1,1,0,1,1,0,32,19,170,230,111,13,207,98,0,0,0,0,0,0,0,0,0,0,0,0,0,0,0,0,0,0,0,0,0,0,0,0,0,0,0,0,0,0,0,0,0,0,0,0,0,0,0,0,0,0,0,0,0,0
210.12,7404,32767,-11952,32767,19896,-2870,0,1,0,0,0,1,1,0,0,1,1,0,0,1,2,0,0,0,0,0,2,180,0,1,1,0,1,1,0,1,1,0,32,19,170,230,111,13,207,98,0,0,0,0,0,0,0,0,0,0,0,0,0,0,0,0,0,0,0,0,0,0,0,0,0,0,0,0,0,0,0,0,0,0,0,0,0,0,0,0,0,0,0,0,0,0
210.13,7404,32767,-11952,32767,19896,-2870,0,1,0,0,0,1,1,0,0,1,1,0,0,1,2,0,0,0,0,0,2,180,0,1,1,0,1,1,0,1,1,0,32,19,170,230,111,13,207,98,0,0,0,0,0,0,0,0,0,0,0,0,0,0,0,0,0,0,0,0,0,0,0,0,0,0,0,0,0,0,0,0,0,0,0,0,0,0,0,0,0,0,0,0,0,0
210.14,7404,32767,-11952,32767,19896,-2870,0,1,0,0,0,1,1,0,0,1,1,0,0,1,2,0,0,0,0,0,2,180,0,1,1,0,1,1,0,1,1,0,32,19,170,230,111,13,207,98,0,0,0,0,0,0,0,0,0,0,0,0,0,0,0,0,0,0,0,0,0,0,0,0,0,0,0,0,0,0,0,0,0,0,0,0,0,0,0,0,0,0,0,0,0,0
210.15,7404,32767,-11952,32767,19896,-2870,0,1,0,0,0,1,1,0,0,1,1,0,0,1,2,0,0,0,0,0,2,180,0,1,1,0,1,1,0,1,1,0,32,19,170,230,111,13,207,98,0,0,0,0,0,0,0,0,0,0,0,0,0,0,0,0,0,0,0,0,0,0,0,0,0,0,0,0,0,0,0,0,0,0,0,0,0,0,0,0,0,0,0,0,0,0
210.16,7404,32767,-11952,32767,19896,-2870,0,1,0,0,0,1,1,0,0,1,1,0,0,1,2,0,0,0,0,0,2,180,0,1,1,0,1,1,0,1,1,0,32,19,170,230,111,13,207,98,0,0,0,0,0,0,0,0,0,0,0,0,0,0,0,0,0,0,0,0,0,0,0,0,0,0,0,0,0,0,0,0,0,0,0,0,0,0,0,0,0,0,0,0,0,0
210.17,7404,32767,-11952,32767,19896,-2870,0,1,0,0,0,1,1,0,0,1,1,0,0,1,2,0,0,0,0,0,2,180,0,1,1,0,1,1,0,1,1,0,32,19,170,230,111,13,207,98,0,0,0,0,0,0,0,0,0,0,0,0,0,0,0,0,0,0,0,0,0,0,0,0,0,0,0,0,0,0,0,0,0,0,0,0,0,0,0,0,0,0,0,0,0,0
210.18,7404,32767,-11952,32767,19896,-2870,0,1,0,0,0,1,1,0,0,1,1,0,0,1,2,0,0,0,0,0,2,180,0,1,1,0,1,1,0,1,1,0,32,19,170,230,111,13,207,98,0,0,0,0,0,0,0,0,0,0,0,0,0,0,0,0,0,0,0,0,0,0,0,0,0,0,0,0,0,0,0,0,0,0,0,0,0,0,0,0,0,0,0,0,0,0
210.19,9752,-5872,-32768,32767,20945,-9579,0,0,0,0,1,0,0,0,0,0,0,0,1,1,1,0,0,0,1,0,2,86,0,1,0,0,0,0,1,1,0,0,42,33,29,230,61,162,238,53,0,0,0,0,0,0,0,0,0,0,0,0,0,0,0,0,0,0,0,0,0,0,0,0,0,0,0,0,0,0,0,0,0,0,0,0,0,0,0,0,0,0,0,0,0,0
210.2,4144,-14812,-32768,32767,4954,-10291,0,0,0,0,0,1,0,0,0,0,0,0,0,0,1,0,0,0,1,0,2,185,1,3,0,0,0,0,0,1,0,0,55,67,17,139,63,181,62,136,0,0,0,0,0,0,0,0,0,0,0,0,0,0,0,0,0,0,0,0,0,0,0,0,0,0,0,0,0,0,0,0,0,0,0,0,0,0,0,0,0,0,0,0,0,0
210.21,-5612,-2584,-32768,32767,-3539,-4586,0,2,0,0,0,1,0,0,0,1,0,0,0,0,1,0,1,1,0,0,1,146,1,3,0,0,0,1,1,0,1,0,1,119,248,244,139,207,221,7,0,0,0,0,0,0,0,0,0,0,0,0,0,0,0,0,0,0,0,0,0,0,0,0,0,0,0,0,0,0,0,0,0,0,0,0,0,0,0,0,0,0,0,0,0,0
210.22,-5612,-2584,-32768,32767,-3539,-4586,0,2,0,0,0,1,0,0,0,1,0,0,0,0,1,0,1,1,0,0,1,146,1,3,0,0,0,1,1,0,1,0,1,119,248,244,139,207,221,7,0,0,0,0,0,0,0,0,0,0,0,0,0,0,0,0,0,0,0,0,0,0,0,0,0,0,0,0,0,0,0,0,0,0,0,0,0,0,0,0,0,0,0,0,0,0
210.23,-5612,-2584,-32768,32767,-3539,-4586,0,2,0,0,0,1,0,0,0,1,0,0,0,0,1,0,1,1,0,0,1,146,1,3,0,0,0,1,1,0,1,0,1,119,248,244,139,207,221,7,0,0,0,0,0,0,0,0,0,0,0,0,0,0,0,0,0,0,0,0,0,0,0,0,0,0,0,0,0,0,0,0,0,0,0,0,0,0,0,0,0,0,0,0,0,0
210.24,-5612,-2584,-32768,32767,-3539,-4586,0,2,0,0,0,1,0,0,0,1,0,0,0,0,1,0,1,1,0,0,1,146,1,3,0,0,0,1,1,0,1,0,1,119,248,244,139,207,221,7,0,0,0,0,0,0,0,0,0,0,0,0,0,0,0,0,0,0,0,0,0,0,0,0,0,0,0,0,0,0,0,0,0,0,0,0,0,0,0,0,0,0,0,0,0,0
210.25,-5612,-2584,-32768,32767,-3539,-4586,0,2,0,0,0,1,0,0,0,1,0,0,0,0,1,0,1,1,0,0,1,146,1,3,0,0,0,1,1,0,1,0,1,119,248,244,139,207,221,7,0,0,0,0,0,0,0,0,0,0,0,0,0,0,0,0,0,0,0,0,0,0,0,0,0,0,0,0,0,0,0,0,0,0,0,0,0,0,0,0,0,0,0,0,0,0
210.26,-5612,-2584,-32768,32767,-3539,-4586,0,2,0,0,0,1,0,0,0,1,0,0,0,0,1,0,1,1,0,0,1,146,1,3,0,0,0,1,1,0,1,0,1,119,248,244,139,207,221,7,0,0,0,0,0,0,0,0,0,0,0,0,0,0,0,0,0,0,0,0,0,0,0,0,0,0,0,0,0,0,0,0,0,0,0,0,0,0,0,0,0,0,0,0,0,0
210.27,-5612,-2584,-32768,32767,-3539,-4586,0,2,0,0,0,1,0,0,0,1,0,0,0,0,1,0,1,1,0,0,1,146,1,3,0,0,0,1,1,0,1,0,1,119,248,244,139,207,221,7,0,0,0,0,0,0,0,0,0,0,0,0,0,0,0,0,0,0,0,0,0,0,0,0,0,0,0,0,0,0,0,0,0,0,0,0,0,0,0,0,0,0,0,0,0,0
210.28,-5612,-2584,-32768,32767,-3539,-4586,0,2,0,0,0,1,0,0,0,1,0,0,0,0,1,0,1,1,0,0,1,146,1,3,0,0,0,1,1,0,1,0,1,119,248,244,139,207,221,7,0,0,0,0,0,0,0,0,0,0,0,0,0,0,0,0,0,0,0,0,0,0,0,0,0,0,0,0,0,0,0,0,0,0,0,0,0,0,0,0,0,0,0,0,0,0
210.29,-5612,-2584,-32768,32767,-3539,-4586,0,2,0,0,0,1,0,0,0,1,0,0,0,0,1,0,1,1,0,0,1,146,1,3,0,0,0,1,1,0,1,0,1,119,248,244,139,207,221,7,0,0,0,0,0,0,0,0,0,0,0,0,0,0,0,0,0,0,0,0,0,0,0,0,0,0,0,0,0,0,0,0,0,0,0,0,0,0,0,0,0,0,0,0,0,0
210.3,-5612,-2584,-32768,32767,-3539,-4586,0,2,0,0,0,1,0,0,0,1,0,0,0,0,1,0,1,1,0,0,1,146,1,3,0,0,0,1,1,0,1,0,1,119,248,244,139,207,221,7,0,0,0,0,0,0,0,0,0,0,0,0,0,0,0,0,0,0,0,0,0,0,0,0,0,0,0,0,0,0,0,0,0,0,0,0,0,0,0,0,0,0,0,0,0,0
210.31,-5612,-2584,-32768,32767,-3539,-4586,0,2,0,0,0,1,0,0,0,1,0,0,0,0,1,0,1,1,0,0,1,146,1,3,0,0,0,1,1,0,1,0,1,119,248,244,139,207,221,7,0,0,0,0,0,0,0,0,0,0,0,0,0,0,0,0,0,0,0,0,0,0,0,0,0,0,0,0,0,0,0,0,0,0,0,0,0,0,0,0,0,0,0,0,0,0
210.32,-5612,-2584,-32768,32767,-3539,-4586,0,2,0,0,0,1,0,0,0,1,0,0,0,0,1,0,1,1,0,0,1,146,1,3,0,0,0,1,1,0,1,0,1,119,248,244,139,207,221,7,0,0,0,0,0,0,0,0,0,0,0,0,0,0,0,0,0,0,0,0,0,0,0,0,0,0,0,0,0,0,0,0,0,0,0,0,0,0,0,0,0,0,0,0,0,0
210.33,-5612,-2584,-32768,32767,-3539,-4586,0,2,0,0,0,1,0,0,0,1,0,0,0,0,1,0,1,1,0,0,1,146,1,3,0,0,0,1,1,0,1,0,1,119,248,244,139,207,221,7,0,0,0,0,0,0,0,0,0,0,0,0,0,0,0,0,0,0,0,0,0,0,0,0,0,0,0,0,0,0,0,0,0,0,0,0,0,0,0,0,0,0,0,0,0,0
210.34,-5600,-3004,-21340,7250,-569,14,1,0,0,0,0,0,0,0,3,100,70,7,0,1,1,0,0,0,0,0,120,55,51,15,0,0,0,0,0,0,0,0,20,17,86,17,43,60,184,219,0,0,0,0,0,0,0,0,0,0,0,0,0,0,0,0,0,0,0,0,0,0,0,0,0,0,0,0,0,0,0,0,0,0,0,0,0,0,0,0,0,0,0,0,0,0
210.35,-3864,-1536,-17184,5223,125,-199,0,1,0,0,0,0,0,0,7,194,167,17,0,1,1,0,0,0,0,0,126,51,53,16,0,0,0,0,1,0,0,0,32,8,114,32,233,23,163,105,0,0,0,0,0,0,0,0,0,0,0,0,0,0,0,0,0,0,0,0,0,0,0,0,0,0,0,0,0,0,0,0,0,0,0,0,0,0,0,0,0,0,0,0,0,0
210.36,-4120,-1760,-16224,3420,-863,-15,0,0,0,0,0,1,0,0,9,0,214,24,0,0,1,0,0,0,0,0,138,46,58,16,0,0,0,0,0,0,0,0,36,7,117,38,203,9,155,30,0,0,0,0,0,0,0,0,0,0,0,0,0,0,0,0,0,0,0,0,0,0,0,0,0,0,0,0,0,0,0,0,0,0,0,0,0,0,0,0,0,0,0,0,0,0
210.37,-3124,-1264,-15376,2730,3322,-176,0,0,1,0,1,1,0,0,8,88,242,5,50,195,146,10,0,3,0,0,50,47,4,5,0,0,0,0,20,184,215,130,39,19,138,200,70,178,188,171,0,0,0,0,0,0,0,0,0,0,0,0,0,0,0,0,0,0,0,0,0,0,0,0,0,0,0,0,0,0,0,0,0,0,0,0,0,0,0,0,0,0,0,0,0,0
210.38,-3124,-1264,-15376,2730,3322,-176,0,0,1,0,1,1,0,0,8,88,242,5,50,195,146,10,0,3,0,0,50,47,4,5,0,0,0,0,20,184,215,130,39,19,138,200,70,178,188,171,0,0,0,0,0,0,0,0,0,0,0,0,0,0,0,0,0,0,0,0,0,0,0,0,0,0,0,0,0,0,0,0,0,0,0,0,0,0,0,0,0,0,0,0,0,0
210.39,-3124,-1264,-15376,2730,3322,-176,0,0,1,0,1,1,0,0,8,88,242,5,50,195,146,10,0,3,0,0,50,47,4,5,0,0,0,0,20,184,215,130,39,19,138,200,70,178,188,171,0,0,0,0,0,0,0,0,0,0,0,0,0,0,0,0,0,0,0,0,0,0,0,0,0,0,0,0,0,0,0,0,0,0,0,0,0,0,0,0,0,0,0,0,0,0
210.4,-3124,-1264,-15376,2730,3322,-176,0,0,1,0,1,1,0,0,8,88,242,5,50,195,146,10,0,3,0,0,50,47,4,5,0,0,0,0,20,184,215,130,39,19,138,200,70,178,188,171,0,0,0,0,0,0,0,0,0,0,0,0,0,0,0,0,0,0,0,0,0,0,0,0,0,0,0,0,0,0,0,0,0,0,0,0,0,0,0,0,0,0,0,0,0,0
210.41,-3124,-1264,-15376,2730,3322,-176,0,0,1,0,1,1,0,0,8,88,242,5,50,195,146,10,0,3,0,0,50,47,4,5,0,0,0,0,20,184,215,130,39,19,138,200,70,178,188,171,0,0,0,0,0,0,0,0,0,0,0,0,0,0,0,0,0,0,0,0,0,0,0,0,0,0,0,0,0,0,0,0,0,0,0,0,0,0,0,0,0,0,0,0,0,0
210.42,-3128,-2056,-14948,2917,3151,-199,0,0,0,0,0,0,0,0,8,131,10,6,74,14,206,12,0,2,0,0,53,54,4,6,0,0,1,1,19,181,207,144,29,8,164,225,251,137,134,45,0,0,0,0,0,0,0,0,0,0,0,0,0,0,0,0,0,0,0,0,0,0,0,0,0,0,0,0,0,0,0,0,0,0,0,0,0,0,0,0,0,0,0,0,0,0
210.43,-3272,-1580,-14356,2754,3019,-249,0,0,0,0,0,0,0,0,9,238,82,7,91,100,250,12,0,0,0,0,54,42,4,5,1,0,0,0,17,176,188,133,249,248,175,29,185,134,60,163,0,0,0,0,0,0,0,0,0,0,0,0,0,0,0,0,0,0,0,0,0,0,0,0,0,0,0,0,0,0,0,0,0,0,0,0,0,0,0,0,0,0,0,0,0,0
210.44,-836,-1372,-16164,2701,673,-463,0,0,0,0,21,80,96,77,66,129,252,125,23,247,144,47,0,0,0,0,171,117,10,67,0,0,0,0,177,85,143,38,140,82,53,9,155,99,105,132,0,0,0,0,0,0,0,0,0,0,0,0,0,0,0,0,0,0,0,0,0,0,0,0,0,0,0,0,0,0,0,0,0,0,0,0,0,0,0,0,0,0,0,0,0,0
210.45,-836,-1372,-16164,2701,673,-463,0,0,0,0,21,80,96,77,66,129,252,125,23,247,144,47,0,0,0,0,171,117,10,67,0,0,0,0,177,85,143,38,140,82,53,9,155,99,105,132,0,0,0,0,0,0,0,0,0,0,0,0,0,0,0,0,0,0,0,0,0,0,0,0,0,0,0,0,0,0,0,0,0,0,0,0,0,0,0,0,0,0,0,0,0,0
210.46,-836,-1372,-16164,2701,673,-463,0,0,0,0,21,80,96,77,66,129,252,125,23,247,144,47,0,0,0,0,171,117,10,67,0,0,0,0,177,85,143,38,140,82,53,9,155,99,105,132,0,0,0,0,0,0,0,0,0,0,0,0,0,0,0,0,0,0,0,0,0,0,0,0,0,0,0,0,0,0,0,0,0,0,0,0,0,0,0,0,0,0,0,0,0,0
210.47,-836,-1372,-16164,2701,673,-463,0,0,0,0,21,80,96,77,66,129,252,125,23,247,144,47,0,0,0,0,171,117,10,67,0,0,0,0,177,85,143,38,140,82,53,9,155,99,105,132,0,0,0,0,0,0,0,0,0,0,0,0,0,0,0,0,0,0,0,0,0,0,0,0,0,0,0,0,0,0,0,0,0,0,0,0,0,0,0,0,0,0,0,0,0,0
210.48,-836,-1372,-16164,2701,673,-463,0,0,0,0,21,80,96,77,66,129,252,125,23,247,144,47,0,0,0,0,171,117,10,67,0,0,0,0,177,85,143,38,140,82,53,9,155,99,105,132,0,0,0,0,0,0,0,0,0,0,0,0,0,0,0,0,0,0,0,0,0,0,0,0,0,0,0,0,0,0,0,0,0,0,0,0,0,0,0,0,0,0,0,0,0,0
210.49,-836,-1372,-16164,2701,673,-463,0,0,0,0,21,80,96,77,66,129,252,125,23,247,144,47,0,0,0,0,171,117,10,67,0,0,0,0,177,85,143,38,140,82,53,9,155,99,105,132,0,0,0,0,0,0,0,0,0,0,0,0,0,0,0,0,0,0,0,0,0,0,0,0,0,0,0,0,0,0,0,0,0,0,0,0,0,0,0,0,0,0,0,0,0,0
210.5,-836,-1372,-16164,2701,673,-463,0,0,0,0,21,80,96,77,66,129,252,125,23,247,144,47,0,0,0,0,171,117,10,67,0,0,0,0,177,85,143,38,140,82,53,9,155,99,105,132,0,0,0,0,0,0,0,0,0,0,0,0,0,0,0,0,0,0,0,0,0,0,0,0,0,0,0,0,0,0,0,0,0,0,0,0,0,0,0,0,0,0,0,0,0,0
210.51,-836,-1372,-16164,2701,673,-463,0,0,0,0,21,80,96,77,66,129,252,125,23,247,144,47,0,0,0,0,171,117,10,67,0,0,0,0,177,85,143,38,140,82,53,9,155,99,105,132,0,0,0,0,0,0,0,0,0,0,0,0,0,0,0,0,0,0,0,0,0,0,0,0,0,0,0,0,0,0,0,0,0,0,0,0,0,0,0,0,0,0,0,0,0,0
210.52,-836,-1372,-16164,2701,673,-463,0,0,0,0,21,80,96,77,66,129,252,125,23,247,144,47,0,0,0,0,171,117,10,67,0,0,0,0,177,85,143,38,140,82,53,9,155,99,105,132,0,0,0,0,0,0,0,0,0,0,0,0,0,0,0,0,0,0,0,0,0,0,0,0,0,0,0,0,0,0,0,0,0,0,0,0,0,0,0,0,0,0,0,0,0,0
210.53,-836,-1372,-16164,2701,673,-463,0,0,0,0,21,80,96,77,66,129,252,125,23,247,144,47,0,0,0,0,171,117,10,67,0,0,0,0,177,85,143,38,140,82,53,9,155,99,105,132,0,0,0,0,0,0,0,0,0,0,0,0,0,0,0,0,0,0,0,0,0,0,0,0,0,0,0,0,0,0,0,0,0,0,0,0,0,0,0,0,0,0,0,0,0,0
210.54,-836,-1372,-16164,2701,673,-463,0,0,0,0,21,80,96,77,66,129,252,125,23,247,144,47,0,0,0,0,171,117,10,67,0,0,0,0,177,85,143,38,140,82,53,9,155,99,105,132,0,0,0,0,0,0,0,0,0,0,0,0,0,0,0,0,0,0,0,0,0,0,0,0,0,0,0,0,0,0,0,0,0,0,0,0,0,0,0,0,0,0,0,0,0,0
210.55,-836,-1372,-16164,2701,673,-463,0,0,0,0,21,80,96,77,66,129,252,125,23,247,144,47,0,0,0,0,171,117,10,67,0,0,0,0,177,85,143,38,140,82,53,9,155,99,105,132,0,0,0,0,0,0,0,0,0,0,0,0,0,0,0,0,0,0,0,0,0,0,0,0,0,0,0,0,0,0,0,0,0,0,0,0,0,0,0,0,0,0,0,0,0,0
210.56,-836,-1372,-16164,2701,673,-463,0,0,0,0,21,80,96,77,66,129,252,125,23,247,144,47,0,0,0,0,171,117,10,67,0,0,0,0,177,85,143,38,140,82,53,9,155,99,105,132,0,0,0,0,0,0,0,0,0,0,0,0,0,0,0,0,0,0,0,0,0,0,0,0,0,0,0,0,0,0,0,0,0,0,0,0,0,0,0,0,0,0,0,0,0,0
210.57,-836,-1372,-16164,2701,673,-463,0,0,0,0,21,80,96,77,66,129,252,125,23,247,144,47,0,0,0,0,171,117,10,67,0,0,0,0,177,85,143,38,140,82,53,9,155,99,105,132,0,0,0,0,0,0,0,0,0,0,0,0,0,0,0,0,0,0,0,0,0,0,0,0,0,0,0,0,0,0,0,0,0,0,0,0,0,0,0,0,0,0,0,0,0,0
210.58,-836,-1372,-16164,2701,673,-463,0,0,0,0,21,80,96,77,66,129,252,125,23,247,144,47,0,0,0,0,171,117,10,67,0,0,0,0,177,85,143,38,140,82,53,9,155,99,105,132,0,0,0,0,0,0,0,0,0,0,0,0,0,0,0,0,0,0,0,0,0,0,0,0,0,0,0,0,0,0,0,0,0,0,0,0,0,0,0,0,0,0,0,0,0,0
210.59,-836,-1372,-16164,2701,673,-463,0,0,0,0,21,80,96,77,66,129,252,125,23,247,144,47,0,0,0,0,171,117,10,67,0,0,0,0,177,85,143,38,140,82,53,9,155,99,105,132,0,0,0,0,0,0,0,0,0,0,0,0,0,0,0,0,0,0,0,0,0,0,0,0,0,0,0,0,0,0,0,0,0,0,0,0,0,0,0,0,0,0,0,0,0,0
210.6,-836,-1372,-16164,2701,673,-463,0,0,0,0,21,80,96,77,66,129,252,125,23,247,144,47,0,0,0,0,171,117,10,67,0,0,0,0,177,85,143,38,140,82,53,9,155,99,105,132,0,0,0,0,0,0,0,0,0,0,0,0,0,0,0,0,0,0,0,0,0,0,0,0,0,0,0,0,0,0,0,0,0,0,0,0,0,0,0,0,0,0,0,0,0,0
210.61,-836,-1372,-16164,2701,673,-463,0,0,0,0,21,80,96,77,66,129,252,125,23,247,144,47,0,0,0,0,171,117,10,67,0,0,0,0,177,85,143,38,140,82,53,9,155,99,105,132,0,0,0,0,0,0,0,0,0,0,0,0,0,0,0,0,0,0,0,0,0,0,0,0,0,0,0,0,0,0,0,0,0,0,0,0,0,0,0,0,0,0,0,0,0,0
210.62,-836,-1372,-16164,2701,673,-463,0,0,0,0,21,80,96,77,66,129,252,125,23,247,144,47,0,0,0,0,171,117,10,67,0,0,0,0,177,85,143,38,140,82,53,9,155,99,105,132,0,0,0,0,0,0,0,0,0,0,0,0,0,0,0,0,0,0,0,0,0,0,0,0,0,0,0,0,0,0,0,0,0,0,0,0,0,0,0,0,0,0,0,0,0,0
210.63,-836,-1372,-16164,2701,673,-463,0,0,0,0,21,80,96,77,66,129,252,125,23,247,144,47,0,0,0,0,171,117,10,67,0,0,0,0,177,85,143,38,140,82,53,9,155,99,105,132,0,0,0,0,0,0,0,0,0,0,0,0,0,0,0,0,0,0,0,0,0,0,0,0,0,0,0,0,0,0,0,0,0,0,0,0,0,0,0,0,0,0,0,0,0,0
210.64,-2044,-2004,-16384,2904,402,-473,17,2,2,37,32,117,123,221,168,147,31,167,40,11,192,87,0,0,0,0,200,141,13,79,0,0,1,0,176,69,121,225,70,247,235,186,138,230,23,120,0,0,0,0,0,0,0,0,0,0,0,0,0,0,0,0,0,0,0,0,0,0,0,0,0,0,0,0,0,0,0,0,0,0,0,0,0,0,0,0,0,0,0,0,0,0
210.65,-2036,-1908,-16516,3180,298,-485,44,10,36,56,68,143,144,38,226,169,45,150,129,56,212,226,0,0,0,0,220,138,14,83,0,0,0,0,166,51,100,194,245,215,159,96,99,125,168,93,0,0,0,0,0,0,0,0,0,0,0,0,0,0,0,0,0,0,0,0,0,0,0,0,0,0,0,0,0,0,0,0,0,0,0,0,0,0,0,0,0,0,0,0,0,0
210.66,-1804,-1828,-16564,3595,78,-617,57,14,47,77,106,203,198,130,233,115,109,150,226,101,47,41,0,0,0,0,4,84,14,115,0,0,0,0,159,33,143,174,217,229,86,37,76,35,45,45,0,0,0,0,0,0,0,0,0,0,0,0,0,0,0,0,0,0,0,0,0,0,0,0,0,0,0,0,0,0,0,0,0,0,0,0,0,0,0,0,0,0,0,0,0,0
210.67,-2972,-2324,-21736,4892,1269,-1454,250,137,170,172,165,193,238,77,99,115,166,185,1,106,163,181,0,0,0,0,135,136,38,164,42,0,47,128,11,28,74,2,5,4,32,28,0,0,1,1,0,0,0,0,0,0,0,0,0,0,0,0,0,0,0,0,0,0,0,0,0,0,0,0,0,0,0,0,0,0,0,0,0,0,0,0,0,0,0,0,0,0,0,0,0,0
210.68,-2972,-2324,-21736,4892,1269,-1454,250,137,170,172,165,193,238,77,99,115,166,185,1,106,163,181,0,0,0,0,135,136,38,164,42,0,47,128,11,28,74,2,5,4,32,28,0,0,1,1,0,0,0,0,0,0,0,0,0,0,0,0,0,0,0,0,0,0,0,0,0,0,0,0,0,0,0,0,0,0,0,0,0,0,0,0,0,0,0,0,0,0,0,0,0,0
210.69,-2972,-2324,-21736,4892,1269,-1454,250,137,170,172,165,193,238,77,99,115,166,185,1,106,163,181,0,0,0,0,135,136,38,164,42,0,47,128,11,28,74,2,5,4,32,28,0,0,1,1,0,0,0,0,0,0,0,0,0,0,0,0,0,0,0,0,0,0,0,0,0,0,0,0,0,0,0,0,0,0,0,0,0,0,0,0,0,0,0,0,0,0,0,0,0,0
210.7,-2972,-2324,-21736,4892,1269,-1454,250,137,170,172,165,193,238,77,99,115,166,185,1,106,163,181,0,0,0,0,135,136,38,164,42,0,47,128,11,28,74,2,5,4,32,28,0,0,1,1,0,0,0,0,0,0,0,0,0,0,0,0,0,0,0,0,0,0,0,0,0,0,0,0,0,0,0,0,0,0,0,0,0,0,0,0,0,0,0,0,0,0,0,0,0,0
210.71,-2972,-2324,-21736,4892,1269,-1454,250,137,170,172,165,193,238,77,99,115,166,185,1,106,163,181,0,0,0,0,135,136,38,164,42,0,47,128,11,28,74,2,5,4,32,28,0,0,1,1,0,0,0,0,0,0,0,0,0,0,0,0,0,0,0,0,0,0,0,0,0,0,0,0,0,0,0,0,0,0,0,0,0,0,0,0,0,0,0,0,0,0,0,0,0,0
210.72,-11980,-828,-31764,6723,-6266,-3223,32,193,210,218,225,235,1,99,135,147,92,175,198,23,223,168,0,0,0,0,66,125,34,111,210,9,31,67,1,1,1,0,0,0,0,1,0,0,0,0,0,0,0,0,0,0,0,0,0,0,0,0,0,0,0,0,0,0,0,0,0,0,0,0,0,0,0,0,0,0,0,0,0,0,0,0,0,0,0,0,0,0,0,0,0,0
210.73,3200,-2200,-26420,14913,883,-1593,45,220,196,0,5,9,209,123,143,175,155,144,174,37,63,165,0,0,0,0,28,101,32,102,169,7,24,49,1,0,0,0,1,0,0,0,0,0,0,1,0,0,0,0,0,0,0,0,0,0,0,0,0,0,0,0,0,0,0,0,0,0,0,0,0,0,0,0,0,0,0,0,0,0,0,0,0,0,0,0,0,0,0,0,0,0
210.74,-1688,23724,-19224,-25955,-2371,-4435,1,2,3,0,0,2,3,1,1,3,3,2,2,3,4,2,0,3,4,0,4,4,2,1,4,1,2,0,1,1,4,0,5,4,0,1,4,1,2,4,0,0,0,0,0,0,0,0,0,0,0,0,0,0,0,0,0,0,0,0,0,0,0,0,0,0,0,0,0,0,0,0,0,0,0,0,0,0,0,0,0,0,0,0,0,0
210.75,-3356,20848,-16312,-22846,4597,1190,1,2,5,1,2,2,3,2,0,4,3,2,1,3,4,1,2,0,3,0,3,4,2,1,3,1,3,1,1,1,3,1,4,2,2,0,3,1,2,3,0,0,0,0,0,0,0,0,0,0,0,0,0,0,0,0,0,0,0,0,0,0,0,0,0,0,0,0,0,0,0,0,0,0,0,0,0,0,0,0,0,0,0,0,0,0
210.76,-3356,20848,-16312,-22846,4597,1190,1,2,5,1,2,2,3,2,0,4,3,2,1,3,4,1,2,0,3,0,3,4,2,1,3,1,3,1,1,1,3,1,4,2,2,0,3,1,2,3,0,0,0,0,0,0,0,0,0,0,0,0,0,0,0,0,0,0,0,0,0,0,0,0,0,0,0,0,0,0,0,0,0,0,0,0,0,0,0,0,0,0,0,0,0,0
210.77,-3356,20848,-16312,-22846,4597,1190,1,2,5,1,2,2,3,2,0,4,3,2,1,3,4,1,2,0,3,0,3,4,2,1,3,1,3,1,1,1,3,1,4,2,2,0,3,1,2,3,0,0,0,0,0,0,0,0,0,0,0,0,0,0,0,0,0,0,0,0,0,0,0,0,0,0,0,0,0,0,0,0,0,0,0,0,0,0,0,0,0,0,0,0,0,0
210.78,-3356,20848,-16312,-22846,4597,1190,1,2,5,1,2,2,3,2,0,4,3,2,1,3,4,1,2,0,3,0,3,4,2,1,3,1,3,1,1,1,3,1,4,2,2,0,3,1,2,3,0,0,0,0,0,0,0,0,0,0,0,0,0,0,0,0,0,0,0,0,0,0,0,0,0,0,0,0,0,0,0,0,0,0,0,0,0,0,0,0,0,0,0,0,0,0
210.79,-3356,20848,-16312,-22846,4597,1190,1,2,5,1,2,2,3,2,0,4,3,2,1,3,4,1,2,0,3,0,3,4,2,1,3,1,3,1,1,1,3,1,4,2,2,0,3,1,2,3,0,0,0,0,0,0,0,0,0,0,0,0,0,0,0,0,0,0,0,0,0,0,0,0,0,0,0,0,0,0,0,0,0,0,0,0,0,0,0,0,0,0,0,0,0,0
210.8,-3356,20848,-16312,-22846,4597,1190,1,2,5,1,2,2,3,2,0,4,3,2,1,3,4,1,2,0,3,0,3,4,2,1,3,1,3,1,1,1,3,1,4,2,2,0,3,1,2,3,0,0,0,0,0,0,0,0,0,0,0,0,0,0,0,0,0,0,0,0,0,0,0,0,0,0,0,0,0,0,0,0,0,0,0,0,0,0,0,0,0,0,0,0,0,0
210.81,-3356,20848,-16312,-22846,4597,1190,1,2,5,1,2,2,3,2,0,4,3,2,1,3,4,1,2,0,3,0,3,4,2,1,3,1,3,1,1,1,3,1,4,2,2,0,3,1,2,3,0,0,0,0,0,0,0,0,0,0,0,0,0,0,0,0,0,0,0,0,0,0,0,0,0,0,0,0,0,0,0,0,0,0,0,0,0,0,0,0,0,0,0,0,0,0
210.82,-3356,20848,-16312,-22846,4597,1190,1,2,5,1,2,2,3,2,0,4,3,2,1,3,4,1,2,0,3,0,3,4,2,1,3,1,3,1,1,1,3,1,4,2,2,0,3,1,2,3,0,0,0,0,0,0,0,0,0,0,0,0,0,0,0,0,0,0,0,0,0,0,0,0,0,0,0,0,0,0,0,0,0,0,0,0,0,0,0,0,0,0,0,0,0,0
210.83,-3356,20848,-16312,-22846,4597,1190,1,2,5,1,2,2,3,2,0,4,3,2,1,3,4,1,2,0,3,0,3,4,2,1,3,1,3,1,1,1,3,1,4,2,2,0,3,1,2,3,0,0,0,0,0,0,0,0,0,0,0,0,0,0,0,0,0,0,0,0,0,0,0,0,0,0,0,0,0,0,0,0,0,0,0,0,0,0,0,0,0,0,0,0,0,0
210.84,-3356,20848,-16312,-22846,4597,1190,1,2,5,1,2,2,3,2,0,4,3,2,1,3,4,1,2,0,3,0,3,4,2,1,3,1,3,1,1,1,3,1,4,2,2,0,3,1,2,3,0,0,0,0,0,0,0,0,0,0,0,0,0,0,0,0,0,0,0,0,0,0,0,0,0,0,0,0,0,0,0,0,0,0,0,0,0,0,0,0,0,0,0,0,0,0
210.85,-3356,20848,-16312,-22846,4597,1190,1,2,5,1,2,2,3,2,0,4,3,2,1,3,4,1,2,0,3,0,3,4,2,1,3,1,3,1,1,1,3,1,4,2,2,0,3,1,2,3,0,0,0,0,0,0,0,0,0,0,0,0,0,0,0,0,0,0,0,0,0,0,0,0,0,0,0,0,0,0,0,0,0,0,0,0,0,0,0,0,0,0,0,0,0,0
210.86,-3356,20848,-16312,-22846,4597,1190,1,2,5,1,2,2,3,2,0,4,3,2,1,3,4,1,2,0,3,0,3,4,2,1,3,1,3,1,1,1,3,1,4,2,2,0,3,1,2,3,0,0,0,0,0,0,0,0,0,0,0,0,0,0,0,0,0,0,0,0,0,0,0,0,0,0,0,0,0,0,0,0,0,0,0,0,0,0,0,0,0,0,0,0,0,0
210.87,-7792,20588,-12944,-20916,4722,4962,2,4,4,2,2,2,2,12,1,2,3,15,2,3,3,16,1,2,2,0,2,3,17,1,3,7,2,4,3,3,2,6,3,2,5,3,4,4,3,2,0,0,0,0,0,0,0,0,0,0,0,0,0,0,0,0,0,0,0,0,0,0,0,0,0,0,0,0,0,0,0,0,0,0,0,0,0,0,0,0,0,0,0,0,0,0
210.88,-11840,20336,-11496,-22012,-259,6477,2,4,4,0,2,3,3,11,2,3,3,15,2,2,4,1,1,3,3,0,3,3,3,1,3,1,1,3,1,3,3,7,3,2,4,2,4,3,2,3,0,0,0,0,0,0,0,0,0,0,0,0,0,0,0,0,0,0,0,0,0,0,0,0,0,0,0,0,0,0,0,0,0,0,0,0,0,0,0,0,0,0,0,0,0,0
210.89,-2344,14228,-13800,-32768,-12757,9099,3,2,3,0,2,2,0,1,2,0,1,1,2,3,3,2,2,3,3,0,2,3,2,1,3,1,2,3,0,3,2,1,2,1,1,2,3,2,2,3,0,0,0,0,0,0,0,0,0,0,0,0,0,0,0,0,0,0,0,0,0,0,0,0,0,0,0,0,0,0,0,0,0,0,0,0,0,0,0,0,0,0,0,0,0,0
210.9,-2284,13036,-15124,-32768,-10771,9034,2,2,3,0,2,2,2,12,2,2,2,15,2,2,3,15,2,2,2,0,3,4,17,3,3,7,4,3,2,3,2,6,2,2,4,2,4,3,4,3,0,0,0,0,0,0,0,0,0,0,0,0,0,0,0,0,0,0,0,0,0,0,0,0,0,0,0,0,0,0,0,0,0,0,0,0,0,0,0,0,0,0,0,0,0,0
210.91,-2284,13036,-15124,-32768,-10771,9034,2,2,3,0,2,2,2,12,2,2,2,15,2,2,3,15,2,2,2,0,3,4,17,3,3,7,4,3,2,3,2,6,2,2,4,2,4,3,4,3,0,0,0,0,0,0,0,0,0,0,0,0,0,0,0,0,0,0,0,0,0,0,0,0,0,0,0,0,0,0,0,0,0,0,0,0,0,0,0,0,0,0,0,0,0,0
210.92,-2284,13036,-15124,-32768,-10771,9034,2,2,3,0,2,2,2,12,2,2,2,15,2,2,3,15,2,2,2,0,3,4,17,3,3,7,4,3,2,3,2,6,2,2,4,2,4,3,4,3,0,0,0,0,0,0,0,0,0,0,0,0,0,0,0,0,0,0,0,0,0,0,0,0,0,0,0,0,0,0,0,0,0,0,0,0,0,0,0,0,0,0,0,0,0,0
210.93,-2284,13036,-15124,-32768,-10771,9034,2,2,3,0,2,2,2,12,2,2,2,15,2,2,3,15,2,2,2,0,3,4,17,3,3,7,4,3,2,3,2,6,2,2,4,2,4,3,4,3,0,0,0,0,0,0,0,0,0,0,0,0,0,0,0,0,0,0,0,0,0,0,0,0,0,0,0,0,0,0,0,0,0,0,0,0,0,0,0,0,0,0,0,0,0,0
210.94,-2864,11768,-17468,-32768,-10157,8459,2,3,3,0,1,2,3,11,3,2,2,14,4,2,3,15,4,1,2,0,6,4,18,4,2,9,2,5,2,5,3,2,3,1,3,1,1,1,2,2,0,0,0,0,0,0,0,0,0,0,0,0,0,0,0,0,0,0,0,0,0,0,0,0,0,0,0,0,0,0,0,0,0,0,0,0,0,0,0,0,0,0,0,0,0,0
210.95,-2844,9880,-20188,-32768,-10709,7493,2,2,4,0,2,0,2,11,2,1,4,14,0,3,1,1,3,3,2,1,0,4,1,5,3,0,3,3,3,4,3,7,3,2,4,2,2,5,0,2,0,0,0,0,0,0,0,0,0,0,0,0,0,0,0,0,0,0,0,0,0,0,0,0,0,0,0,0,0,0,0,0,0,0,0,0,0,0,0,0,0,0,0,0,0,0
210.96,-8944,-28748,-32768,-32768,-10572,13223,1,0,2,1,2,6,3,2,3,2,4,0,3,0,1,0,2,8,2,1,0,5,0,4,4,0,4,3,2,2,3,1,3,3,2,2,3,1,3,4,0,0,0,0,0,0,0,0,0,0,0,0,0,0,0,0,0,0,0,0,0,0,0,0,0,0,0,0,0,0,0,0,0,0,0,0,0,0,0,0,0,0,0,0,0,0
210.97,-9884,-32768,-32768,-32768,-10193,6839,2,2,2,1,3,4,2,10,0,3,2,15,2,1,4,1,0,3,2,0,4,1,1,3,1,2,0,4,2,5,0,0,7,2,2,3,4,1,4,5,0,0,0,0,0,0,0,0,0,0,0,0,0,0,0,0,0,0,0,0,0,0,0,0,0,0,0,0,0,0,0,0,0,0,0,0,0,0,0,0,0,0,0,0,0,0
210.98,-9884,-32768,-32768,-32768,-10193,6839,2,2,2,1,3,4,2,10,0,3,2,15,2,1,4,1,0,3,2,0,4,1,1,3,1,2,0,4,2,5,0,0,7,2,2,3,4,1,4,5,0,0,0,0,0,0,0,0,0,0,0,0,0,0,0,0,0,0,0,0,0,0,0,0,0,0,0,0,0,0,0,0,0,0,0,0,0,0,0,0,0,0,0,0,0,0
210.99,-9884,-32768,-32768,-32768,-10193,6839,2,2,2,1,3,4,2,10,0,3,2,15,2,1,4,1,0,3,2,0,4,1,1,3,1,2,0,4,2,5,0,0,7,2,2,3,4,1,4,5,0,0,0,0,0,0,0,0,0,0,0,0,0,0,0,0,0,0,0,0,0,0,0,0,0,0,0,0,0,0,0,0,0,0,0,0,0,0,0,0,0,0,0,0,0,0
211,-9884,-32768,-32768,-32768,-10193,6839,2,2,2,1,3,4,2,10,0,3,2,15,2,1,4,1,0,3,2,0,4,1,1,3,1,2,0,4,2,5,0,0,7,2,2,3,4,1,4,5,0,0,0,0,0,0,0,0,0,0,0,0,0,0,0,0,0,0,0,0,0,0,0,0,0,0,0,0,0,0,0,0,0,0,0,0,0,0,0,0,0,0,0,0,0,0
211.01,-9884,-32768,-32768,-32768,-10193,6839,2,2,2,1,3,4,2,10,0,3,2,15,2,1,4,1,0,3,2,0,4,1,1,3,1,2,0,4,2,5,0,0,7,2,2,3,4,1,4,5,0,0,0,0,0,0,0,0,0,0,0,0,0,0,0,0,0,0,0,0,0,0,0,0,0,0,0,0,0,0,0,0,0,0,0,0,0,0,0,0,0,0,0,0,0,0
211.02,-5796,-32768,-32768,-32768,-15293,-676,0,2,0,0,0,6,1,10,0,3,0,12,0,2,0,14,1,1,1,0,0,2,16,1,3,7,5,6,3,6,2,4,2,0,4,0,0,2,7,0,0,0,0,0,0,0,0,0,0,0,0,0,0,0,0,0,0,0,0,0,0,0,0,0,0,0,0,0,0,0,0,0,0,0,0,0,0,0,0,0,0,0,0,0,0,0
211.03,5488,-32768,-32768,-32768,-23371,-4822,5,2,2,0,5,3,0,10,4,1,1,19,2,0,3,0,0,2,0,0,5,0,2,0,0,0,0,5,0,3,0,1,0,0,3,0,2,2,4,0,0,0,0,0,0,0,0,0,0,0,0,0,0,0,0,0,0,0,0,0,0,0,0,0,0,0,0,0,0,0,0,0,0,0,0,0,0,0,0,0,0,0,0,0,0,0
211.04,14232,-32768,-20396,1213,3353,13362,0,3,3,0,1,3,2,1,2,3,2,0,3,3,2,1,3,3,3,1,3,4,2,3,7,0,4,6,3,1,3,2,6,2,0,4,4,1,7,0,0,0,0,0,0,0,0,0,0,0,0,0,0,0,0,0,0,0,0,0,0,0,0,0,0,0,0,0,0,0,0,0,0,0,0,0,0,0,0,0,0,0,0,0,0,0
211.05,10200,-32768,-22060,11057,-2569,17846,6,3,2,1,5,0,2,1,0,5,0,4,2,7,6,0,0,5,3,0,6,1,3,0,5,3,0,5,3,5,1,2,3,6,2,6,6,4,6,3,0,0,0,0,0,0,0,0,0,0,0,0,0,0,0,0,0,0,0,0,0,0,0,0,0,0,0,0,0,0,0,0,0,0,0,0,0,0,0,0,0,0,0,0,0,0
211.06,10200,-32768,-22060,11057,-2569,17846,6,3,2,1,5,0,2,1,0,5,0,4,2,7,6,0,0,5,3,0,6,1,3,0,5,3,0,5,3,5,1,2,3,6,2,6,6,4,6,3,0,0,0,0,0,0,0,0,0,0,0,0,0,0,0,0,0,0,0,0,0,0,0,0,0,0,0,0,0,0,0,0,0,0,0,0,0,0,0,0,0,0,0,0,0,0
211.07,10200,-32768,-22060,11057,-2569,17846,6,3,2,1,5,0,2,1,0,5,0,4,2,7,6,0,0,5,3,0,6,1,3,0,5,3,0,5,3,5,1,2,3,6,2,6,6,4,6,3,0,0,0,0,0,0,0,0,0,0,0,0,0,0,0,0,0,0,0,0,0,0,0,0,0,0,0,0,0,0,0,0,0,0,0,0,0,0,0,0,0,0,0,0,0,0
211.08,10200,-32768,-22060,11057,-2569,17846,6,3,2,1,5,0,2,1,0,5,0,4,2,7,6,0,0,5,3,0,6,1,3,0,5,3,0,5,3,5,1,2,3,6,2,6,6,4,6,3,0,0,0,0,0,0,0,0,0,0,0,0,0,0,0,0,0,0,0,0,0,0,0,0,0,0,0,0,0,0,0,0,0,0,0,0,0,0,0,0,0,0,0,0,0,0
211.09,13924,-32768,-32768,32767,9263,19481,7,2,3,2,6,3,3,15,8,1,0,16,9,1,2,19,2,4,4,0,8,5,18,2,1,9,4,2,2,1,3,7,5,3,5,1,3,3,5,8,0,0,0,0,0,0,0,0,0,0,0,0,0,0,0,0,0,0,0,0,0,0,0,0,0,0,0,0,0,0,0,0,0,0,0,0,0,0,0,0,0,0,0,0,0,0
211.1,13924,-32768,-32768,32767,9263,19481,7,2,3,2,6,3,3,15,8,1,0,16,9,1,2,19,2,4,4,0,8,5,18,2,1,9,4,2,2,1,3,7,5,3,5,1,3,3,5,8,0,0,0,0,0,0,0,0,0,0,0,0,0,0,0,0,0,0,0,0,0,0,0,0,0,0,0,0,0,0,0,0,0,0,0,0,0,0,0,0,0,0,0,0,0,0
211.11,13924,-32768,-32768,32767,9263,19481,7,2,3,2,6,3,3,15,8,1,0,16,9,1,2,19,2,4,4,0,8,5,18,2,1,9,4,2,2,1,3,7,5,3,5,1,3,3,5,8,0,0,0,0,0,0,0,0,0,0,0,0,0,0,0,0,0,0,0,0,0,0,0,0,0,0,0,0,0,0,0,0,0,0,0,0,0,0,0,0,0,0,0,0,0,0
211.12,13924,-32768,-32768,32767,9263,19481,7,2,3,2,6,3,3,15,8,1,0,16,9,1,2,19,2,4,4,0,8,5,18,2,1,9,4,2,2,1,3,7,5,3,5,1,3,3,5,8,0,0,0,0,0,0,0,0,0,0,0,0,0,0,0,0,0,0,0,0,0,0,0,0,0,0,0,0,0,0,0,0,0,0,0,0,0,0,0,0,0,0,0,0,0,0
211.13,13924,-32768,-32768,32767,9263,19481,7,2,3,2,6,3,3,15,8,1,0,16,9,1,2,19,2,4,4,0,8,5,18,2,1,9,4,2,2,1,3,7,5,3,5,1,3,3,5,8,0,0,0,0,0,0,0,0,0,0,0,0,0,0,0,0,0,0,0,0,0,0,0,0,0,0,0,0,0,0,0,0,0,0,0,0,0,0,0,0,0,0,0,0,0,0
211.14,13924,-32768,-32768,32767,9263,19481,7,2,3,2,6,3,3,15,8,1,0,16,9,1,2,19,2,4,4,0,8,5,18,2,1,9,4,2,2,1,3,7,5,3,5,1,3,3,5,8,0,0,0,0,0,0,0,0,0,0,0,0,0,0,0,0,0,0,0,0,0,0,0,0,0,0,0,0,0,0,0,0,0,0,0,0,0,0,0,0,0,0,0,0,0,0
211.15,13924,-32768,-32768,32767,9263,19481,7,2,3,2,6,3,3,15,8,1,0,16,9,1,2,19,2,4,4,0,8,5,18,2,1,9,4,2,2,1,3,7,5,3,5,1,3,3,5,8,0,0,0,0,0,0,0,0,0,0,0,0,0,0,0,0,0,0,0,0,0,0,0,0,0,0,0,0,0,0,0,0,0,0,0,0,0,0,0,0,0,0,0,0,0,0
211.16,13924,-32768,-32768,32767,9263,19481,7,2,3,2,6,3,3,15,8,1,0,16,9,1,2,19,2,4,4,0,8,5,18,2,1,9,4,2,2,1,3,7,5,3,5,1,3,3,5,8,0,0,0,0,0,0,0,0,0,0,0,0,0,0,0,0,0,0,0,0,0,0,0,0,0,0,0,0,0,0,0,0,0,0,0,0,0,0,0,0,0,0,0,0,0,0
211.17,16408,5824,32767,32767,5979,12584,2,10,1,0,3,8,1,0,0,8,1,3,2,1,3,0,1,3,1,0,5,140,0,0,2,0,0,2,0,6,1,0,5,2,167,43,1,236,55,3,0,0,0,0,0,0,0,0,0,0,0,0,0,0,0,0,0,0,0,0,0,0,0,0,0,0,0,0,0,0,0,0,0,0,0,0,0,0,0,0,0,0,0,0,0,0
211.18,548,-9560,-31096,28270,-9680,1078,1,1,0,0,1,1,0,0,0,1,0,0,0,0,0,0,0,2,0,0,1,78,2,4,0,0,0,0,1,0,0,0,1,131,114,89,24,91,127,62,0,0,0,0,0,0,0,0,0,0,0,0,0,0,0,0,0,0,0,0,0,0,0,0,0,0,0,0,0,0,0,0,0,0,0,0,0,0,0,0,0,0,0,0,0,0
211.19,-2304,-10984,-24152,23782,-7935,-456,0,0,0,0,0,0,0,0,0,0,0,0,1,0,1,0,1,0,0,0,26,223,13,6,0,0,0,1,0,0,0,0,245,212,197,181,12,251,35,184,0,0,0,0,0,0,0,0,0,0,0,0,0,0,0,0,0,0,0,0,0,0,0,0,0,0,0,0,0,0,0,0,0,0,0,0,0,0,0,0,0,0,0,0,0,0
211.2,-10292,-6920,-20512,14521,-2935,1398,0,0,0,0,0,1,0,0,1,56,10,1,0,0,0,0,0,0,1,0,0,1,0,1,0,0,0,0,0,0,0,0,237,32,64,9,149,143,207,165,0,0,0,0,0,0,0,0,0,0,0,0,0,0,0,0,0,0,0,0,0,0,0,0,0,0,0,0,0,0,0,0,0,0,0,0,0,0,0,0,0,0,0,0,0,0
211.21,-10292,-6920,-20512,14521,-2935,1398,0,0,0,0,0,1,0,0,1,56,10,1,0,0,0,0,0,0,1,0,0,1,0,1,0,0,0,0,0,0,0,0,237,32,64,9,149,143,207,165,0,0,0,0,0,0,0,0,0,0,0,0,0,0,0,0,0,0,0,0,0,0,0,0,0,0,0,0,0,0,0,0,0,0,0,0,0,0,0,0,0,0,0,0,0,0
211.22,-10292,-6920,-20512,14521,-2935,1398,0,0,0,0,0,1,0,0,1,56,10,1,0,0,0,0,0,0,1,0,0,1,0,1,0,0,0,0,0,0,0,0,237,32,64,9,149,143,207,165,0,0,0,0,0,0,0,0,0,0,0,0,0,0,0,0,0,0,0,0,0,0,0,0,0,0,0,0,0,0,0,0,0,0,0,0,0,0,0,0,0,0,0,0,0,0
211.23,-10292,-6920,-20512,14521,-2935,1398,0,0,0,0,0,1,0,0,1,56,10,1,0,0,0,0,0,0,1,0,0,1,0,1,0,0,0,0,0,0,0,0,237,32,64,9,149,143,207,165,0,0,0,0,0,0,0,0,0,0,0,0,0,0,0,0,0,0,0,0,0,0,0,0,0,0,0,0,0,0,0,0,0,0,0,0,0,0,0,0,0,0,0,0,0,0
211.24,-10292,-6920,-20512,14521,-2935,1398,0,0,0,0,0,1,0,0,1,56,10,1,0,0,0,0,0,0,1,0,0,1,0,1,0,0,0,0,0,0,0,0,237,32,64,9,149,143,207,165,0,0,0,0,0,0,0,0,0,0,0,0,0,0,0,0,0,0,0,0,0,0,0,0,0,0,0,0,0,0,0,0,0,0,0,0,0,0,0,0,0,0,0,0,0,0
211.25,-10292,-6920,-20512,14521,-2935,1398,0,0,0,0,0,1,0,0,1,56,10,1,0,0,0,0,0,0,1,0,0,1,0,1,0,0,0,0,0,0,0,0,237,32,64,9,149,143,207,165,0,0,0,0,0,0,0,0,0,0,0,0,0,0,0,0,0,0,0,0,0,0,0,0,0,0,0,0,0,0,0,0,0,0,0,0,0,0,0,0,0,0,0,0,0,0
211.26,-10292,-6920,-20512,14521,-2935,1398,0,0,0,0,0,1,0,0,1,56,10,1,0,0,0,0,0,0,1,0,0,1,0,1,0,0,0,0,0,0,0,0,237,32,64,9,149,143,207,165,0,0,0,0,0,0,0,0,0,0,0,0,0,0,0,0,0,0,0,0,0,0,0,0,0,0,0,0,0,0,0,0,0,0,0,0,0,0,0,0,0,0,0,0,0,0
211.27,-10292,-6920,-20512,14521,-2935,1398,0,0,0,0,0,1,0,0,1,56,10,1,0,0,0,0,0,0,1,0,0,1,0,1,0,0,0,0,0,0,0,0,237,32,64,9,149,143,207,165,0,0,0,0,0,0,0,0,0,0,0,0,0,0,0,0,0,0,0,0,0,0,0,0,0,0,0,0,0,0,0,0,0,0,0,0,0,0,0,0,0,0,0,0,0,0
211.28,-10292,-6920,-20512,14521,-2935,1398,0,0,0,0,0,1,0,0,1,56,10,1,0,0,0,0,0,0,1,0,0,1,0,1,0,0,0,0,0,0,0,0,237,32,64,9,149,143,207,165,0,0,0,0,0,0,0,0,0,0,0,0,0,0,0,0,0,0,0,0,0,0,0,0,0,0,0,0,0,0,0,0,0,0,0,0,0,0,0,0,0,0,0,0,0,0
211.29,-10292,-6920,-20512,14521,-2935,1398,0,0,0,0,0,1,0,0,1,56,10,1,0,0,0,0,0,0,1,0,0,1,0,1,0,0,0,0,0,0,0,0,237,32,64,9,149,143,207,165,0,0,0,0,0,0,0,0,0,0,0,0,0,0,0,0,0,0,0,0,0,0,0,0,0,0,0,0,0,0,0,0,0,0,0,0,0,0,0,0,0,0,0,0,0,0
211.3,-10292,-6920,-20512,14521,-2935,1398,0,0,0,0,0,1,0,0,1,56,10,1,0,0,0,0,0,0,1,0,0,1,0,1,0,0,0,0,0,0,0,0,237,32,64,9,149,143,207,165,0,0,0,0,0,0,0,0,0,0,0,0,0,0,0,0,0,0,0,0,0,0,0,0,0,0,0,0,0,0,0,0,0,0,0,0,0,0,0,0,0,0,0,0,0,0
211.31,-10292,-6920,-20512,14521,-2935,1398,0,0,0,0,0,1,0,0,1,56,10,1,0,0,0,0,0,0,1,0,0,1,0,1,0,0,0,0,0,0,0,0,237,32,64,9,149,143,207,165,0,0,0,0,0,0,0,0,0,0,0,0,0,0,0,0,0,0,0,0,0,0,0,0,0,0,0,0,0,0,0,0,0,0,0,0,0,0,0,0,0,0,0,0,0,0
211.32,-10292,-6920,-20512,14521,-2935,1398,0,0,0,0,0,1,0,0,1,56,10,1,0,0,0,0,0,0,1,0,0,1,0,1,0,0,0,0,0,0,0,0,237,32,64,9,149,143,207,165,0,0,0,0,0,0,0,0,0,0,0,0,0,0,0,0,0,0,0,0,0,0,0,0,0,0,0,0,0,0,0,0,0,0,0,0,0,0,0,0,0,0,0,0,0,0
211.33,-10292,-6920,-20512,14521,-2935,1398,0,0,0,0,0,1,0,0,1,56,10,1,0,0,0,0,0,0,1,0,0,1,0,1,0,0,0,0,0,0,0,0,237,32,64,9,149,143,207,165,0,0,0,0,0,0,0,0,0,0,0,0,0,0,0,0,0,0,0,0,0,0,0,0,0,0,0,0,0,0,0,0,0,0,0,0,0,0,0,0,0,0,0,0,0,0
211.34,-10292,-6920,-20512,14521,-2935,1398,0,0,0,0,0,1,0,0,1,56,10,1,0,0,0,0,0,0,1,0,0,1,0,1,0,0,0,0,0,0,0,0,237,32,64,9,149,143,207,165,0,0,0,0,0,0,0,0,0,0,0,0,0,0,0,0,0,0,0,0,0,0,0,0,0,0,0,0,0,0,0,0,0,0,0,0,0,0,0,0,0,0,0,0,0,0
211.35,-10292,-6920,-20512,14521,-2935,1398,0,0,0,0,0,1,0,0,1,56,10,1,0,0,0,0,0,0,1,0,0,1,0,1,0,0,0,0,0,0,0,0,237,32,64,9,149,143,207,165,0,0,0,0,0,0,0,0,0,0,0,0,0,0,0,0,0,0,0,0,0,0,0,0,0,0,0,0,0,0,0,0,0,0,0,0,0,0,0,0,0,0,0,0,0,0
211.36,-10292,-6920,-20512,14521,-2935,1398,0,0,0,0,0,1,0,0,1,56,10,1,0,0,0,0,0,0,1,0,0,1,0,1,0,0,0,0,0,0,0,0,237,32,64,9,149,143,207,165,0,0,0,0,0,0,0,0,0,0,0,0,0,0,0,0,0,0,0,0,0,0,0,0,0,0,0,0,0,0,0,0,0,0,0,0,0,0,0,0,0,0,0,0,0,0
211.37,-10292,-6920,-20512,14521,-2935,1398,0,0,0,0,0,1,0,0,1,56,10,1,0,0,0,0,0,0,1,0,0,1,0,1,0,0,0,0,0,0,0,0,237,32,64,9,149,143,207,165,0,0,0,0,0,0,0,0,0,0,0,0,0,0,0,0,0,0,0,0,0,0,0,0,0,0,0,0,0,0,0,0,0,0,0,0,0,0,0,0,0,0,0,0,0,0
211.38,-10292,-6920,-20512,14521,-2935,1398,0,0,0,0,0,1,0,0,1,56,10,1,0,0,0,0,0,0,1,0,0,1,0,1,0,0,0,0,0,0,0,0,237,32,64,9,149,143,207,165,0,0,0,0,0,0,0,0,0,0,0,0,0,0,0,0,0,0,0,0,0,0,0,0,0,0,0,0,0,0,0,0,0,0,0,0,0,0,0,0,0,0,0,0,0,0
211.39,-8864,-4132,-24372,6642,604,-138,0,0,1,0,0,0,0,0,5,121,121,12,0,0,1,0,0,0,0,0,0,1,0,0,0,0,0,0,0,1,0,0,80,84,135,43,239,61,171,239,0,0,0,0,0,0,0,0,0,0,0,0,0,0,0,0,0,0,0,0,0,0,0,0,0,0,0,0,0,0,0,0,0,0,0,0,0,0,0,0,0,0,0,0,0,0
211.4,-8864,-4132,-24372,6642,604,-138,0,0,1,0,0,0,0,0,5,121,121,12,0,0,1,0,0,0,0,0,0,1,0,0,0,0,0,0,0,1,0,0,80,84,135,43,239,61,171,239,0,0,0,0,0,0,0,0,0,0,0,0,0,0,0,0,0,0,0,0,0,0,0,0,0,0,0,0,0,0,0,0,0,0,0,0,0,0,0,0,0,0,0,0,0,0
211.41,-8864,-4132,-24372,6642,604,-138,0,0,1,0,0,0,0,0,5,121,121,12,0,0,1,0,0,0,0,0,0,1,0,0,0,0,0,0,0,1,0,0,80,84,135,43,239,61,171,239,0,0,0,0,0,0,0,0,0,0,0,0,0,0,0,0,0,0,0,0,0,0,0,0,0,0,0,0,0,0,0,0,0,0,0,0,0,0,0,0,0,0,0,0,0,0
211.42,-8864,-4132,-24372,6642,604,-138,0,0,1,0,0,0,0,0,5,121,121,12,0,0,1,0,0,0,0,0,0,1,0,0,0,0,0,0,0,1,0,0,80,84,135,43,239,61,171,239,0,0,0,0,0,0,0,0,0,0,0,0,0,0,0,0,0,0,0,0,0,0,0,0,0,0,0,0,0,0,0,0,0,0,0,0,0,0,0,0,0,0,0,0,0,0
211.43,-8864,-4132,-24372,6642,604,-138,0,0,1,0,0,0,0,0,5,121,121,12,0,0,1,0,0,0,0,0,0,1,0,0,0,0,0,0,0,1,0,0,80,84,135,43,239,61,171,239,0,0,0,0,0,0,0,0,0,0,0,0,0,0,0,0,0,0,0,0,0,0,0,0,0,0,0,0,0,0,0,0,0,0,0,0,0,0,0,0,0,0,0,0,0,0
211.44,-8864,-4132,-24372,6642,604,-138,0,0,1,0,0,0,0,0,5,121,121,12,0,0,1,0,0,0,0,0,0,1,0,0,0,0,0,0,0,1,0,0,80,84,135,43,239,61,171,239,0,0,0,0,0,0,0,0,0,0,0,0,0,0,0,0,0,0,0,0,0,0,0,0,0,0,0,0,0,0,0,0,0,0,0,0,0,0,0,0,0,0,0,0,0,0
211.45,-8864,-4132,-24372,6642,604,-138,0,0,1,0,0,0,0,0,5,121,121,12,0,0,1,0,0,0,0,0,0,1,0,0,0,0,0,0,0,1,0,0,80,84,135,43,239,61,171,239,0,0,0,0,0,0,0,0,0,0,0,0,0,0,0,0,0,0,0,0,0,0,0,0,0,0,0,0,0,0,0,0,0,0,0,0,0,0,0,0,0,0,0,0,0,0
211.46,-8864,-4132,-24372,6642,604,-138,0,0,1,0,0,0,0,0,5,121,121,12,0,0,1,0,0,0,0,0,0,1,0,0,0,0,0,0,0,1,0,0,80,84,135,43,239,61,171,239,0,0,0,0,0,0,0,0,0,0,0,0,0,0,0,0,0,0,0,0,0,0,0,0,0,0,0,0,0,0,0,0,0,0,0,0,0,0,0,0,0,0,0,0,0,0
211.47,-3148,-376,-16228,265,3090,-154,0,0,0,0,0,0,1,0,32,237,107,36,0,0,0,0,0,0,0,0,65,193,5,18,0,0,0,1,119,68,29,50,139,30,185,200,129,197,107,230,0,0,0,0,0,0,0,0,0,0,0,0,0,0,0,0,0,0,0,0,0,0,0,0,0,0,0,0,0,0,0,0,0,0,0,0,0,0,0,0,0,0,0,0,0,0
211.48,-2680,-1548,-15908,863,3097,-261,0,0,0,0,0,0,0,0,33,232,110,53,0,0,0,0,0,0,0,0,60,196,4,18,0,0,0,0,116,35,33,38,116,233,187,193,161,190,118,33,0,0,0,0,0,0,0,0,0,0,0,0,0,0,0,0,0,0,0,0,0,0,0,0,0,0,0,0,0,0,0,0,0,0,0,0,0,0,0,0,0,0,0,0,0,0
211.49,-1888,-1588,-16064,1341,2819,-189,0,0,0,0,0,0,1,0,67,10,122,73,191,64,184,50,0,0,1,0,29,170,3,8,0,0,0,0,86,152,187,43,212,35,130,138,116,183,11,71,0,0,0,0,0,0,0,0,0,0,0,0,0,0,0,0,0,0,0,0,0,0,0,0,0,0,0,0,0,0,0,0,0,0,0,0,0,0,0,0,0,0,0,0,0,0
211.5,-1612,-644,-15612,1920,2533,-190,0,1,0,0,0,0,0,0,66,236,54,92,205,85,207,63,0,1,0,0,28,154,3,8,0,0,2,0,45,139,184,23,208,36,87,129,104,203,27,49,0,0,0,0,0,0,0,0,0,0,0,0,0,0,0,0,0,0,0,0,0,0,0,0,0,0,0,0,0,0,0,0,0,0,0,0,0,0,0,0,0,0,0,0,0,0
211.51,-1612,-644,-15612,1920,2533,-190,0,1,0,0,0,0,0,0,66,236,54,92,205,85,207,63,0,1,0,0,28,154,3,8,0,0,2,0,45,139,184,23,208,36,87,129,104,203,27,49,0,0,0,0,0,0,0,0,0,0,0,0,0,0,0,0,0,0,0,0,0,0,0,0,0,0,0,0,0,0,0,0,0,0,0,0,0,0,0,0,0,0,0,0,0,0
211.52,-1612,-644,-15612,1920,2533,-190,0,1,0,0,0,0,0,0,66,236,54,92,205,85,207,63,0,1,0,0,28,154,3,8,0,0,2,0,45,139,184,23,208,36,87,129,104,203,27,49,0,0,0,0,0,0,0,0,0,0,0,0,0,0,0,0,0,0,0,0,0,0,0,0,0,0,0,0,0,0,0,0,0,0,0,0,0,0,0,0,0,0,0,0,0,0
211.53,-1612,-644,-15612,1920,2533,-190,0,1,0,0,0,0,0,0,66,236,54,92,205,85,207,63,0,1,0,0,28,154,3,8,0,0,2,0,45,139,184,23,208,36,87,129,104,203,27,49,0,0,0,0,0,0,0,0,0,0,0,0,0,0,0,0,0,0,0,0,0,0,0,0,0,0,0,0,0,0,0,0,0,0,0,0,0,0,0,0,0,0,0,0,0,0
211.54,-1612,-644,-15612,1920,2533,-190,0,1,0,0,0,0,0,0,66,236,54,92,205,85,207,63,0,1,0,0,28,154,3,8,0,0,2,0,45,139,184,23,208,36,87,129,104,203,27,49,0,0,0,0,0,0,0,0,0,0,0,0,0,0,0,0,0,0,0,0,0,0,0,0,0,0,0,0,0,0,0,0,0,0,0,0,0,0,0,0,0,0,0,0,0,0
211.55,-1612,-644,-15612,1920,2533,-190,0,1,0,0,0,0,0,0,66,236,54,92,205,85,207,63,0,1,0,0,28,154,3,8,0,0,2,0,45,139,184,23,208,36,87,129,104,203,27,49,0,0,0,0,0,0,0,0,0,0,0,0,0,0,0,0,0,0,0,0,0,0,0,0,0,0,0,0,0,0,0,0,0,0,0,0,0,0,0,0,0,0,0,0,0,0
211.56,-1612,-644,-15612,1920,2533,-190,0,1,0,0,0,0,0,0,66,236,54,92,205,85,207,63,0,1,0,0,28,154,3,8,0,0,2,0,45,139,184,23,208,36,87,129,104,203,27,49,0,0,0,0,0,0,0,0,0,0,0,0,0,0,0,0,0,0,0,0,0,0,0,0,0,0,0,0,0,0,0,0,0,0,0,0,0,0,0,0,0,0,0,0,0,0
211.57,-1612,-644,-15612,1920,2533,-190,0,1,0,0,0,0,0,0,66,236,54,92,205,85,207,63,0,1,0,0,28,154,3,8,0,0,2,0,45,139,184,23,208,36,87,129,104,203,27,49,0,0,0,0,0,0,0,0,0,0,0,0,0,0,0,0,0,0,0,0,0,0,0,0,0,0,0,0,0,0,0,0,0,0,0,0,0,0,0,0,0,0,0,0,0,0
211.58,-1612,-644,-15612,1920,2533,-190,0,1,0,0,0,0,0,0,66,236,54,92,205,85,207,63,0,1,0,0,28,154,3,8,0,0,2,0,45,139,184,23,208,36,87,129,104,203,27,49,0,0,0,0,0,0,0,0,0,0,0,0,0,0,0,0,0,0,0,0,0,0,0,0,0,0,0,0,0,0,0,0,0,0,0,0,0,0,0,0,0,0,0,0,0,0
211.59,-1612,-644,-15612,1920,2533,-190,0,1,0,0,0,0,0,0,66,236,54,92,205,85,207,63,0,1,0,0,28,154,3,8,0,0,2,0,45,139,184,23,208,36,87,129,104,203,27,49,0,0,0,0,0,0,0,0,0,0,0,0,0,0,0,0,0,0,0,0,0,0,0,0,0,0,0,0,0,0,0,0,0,0,0,0,0,0,0,0,0,0,0,0,0,0
211.6,-1612,-644,-15612,1920,2533,-190,0,1,0,0,0,0,0,0,66,236,54,92,205,85,207,63,0,1,0,0,28,154,3,8,0,0,2,0,45,139,184,23,208,36,87,129,104,203,27,49,0,0,0,0,0,0,0,0,0,0,0,0,0,0,0,0,0,0,0,0,0,0,0,0,0,0,0,0,0,0,0,0,0,0,0,0,0,0,0,0,0,0,0,0,0,0
211.61,-1612,-644,-15612,1920,2533,-190,0,1,0,0,0,0,0,0,66,236,54,92,205,85,207,63,0,1,0,0,28,154,3,8,0,0,2,0,45,139,184,23,208,36,87,129,104,203,27,49,0,0,0,0,0,0,0,0,0,0,0,0,0,0,0,0,0,0,0,0,0,0,0,0,0,0,0,0,0,0,0,0,0,0,0,0,0,0,0,0,0,0,0,0,0,0
211.62,-1484,-1472,-15544,2455,2378,-146,0,1,0,0,0,0,0,0,80,39,83,153,39,116,238,76,0,1,1,0,30,158,3,8,0,0,0,0,29,125,145,2,198,32,18,74,77,213,243,223,0,0,0,0,0,0,0,0,0,0,0,0,0,0,0,0,0,0,0,0,0,0,0,0,0,0,0,0,0,0,0,0,0,0,0,0,0,0,0,0,0,0,0,0,0,0
211.63,-2596,-2316,-25404,19856,-2253,-3446,79,4,196,0,24,58,227,147,143,182,239,74,158,55,148,130,0,1,0,0,162,115,17,53,51,1,5,5,0,0,0,0,0,1,0,2,0,0,0,0,0,0,0,0,0,0,0,0,0,0,0,0,0,0,0,0,0,0,0,0,0,0,0,0,0,0,0,0,0,0,0,0,0,0,0,0,0,0,0,0,0,0,0,0,0,0
211.64,-704,-1976,-28708,22642,-2682,-3146,71,9,195,75,44,59,208,152,143,189,3,60,159,90,181,130,1,0,0,0,112,90,13,46,47,1,4,4,0,1,0,0,0,0,0,0,1,0,1,0,0,0,0,0,0,0,0,0,0,0,0,0,0,0,0,0,0,0,0,0,0,0,0,0,0,0,0,0,0,0,0,0,0,0,0,0,0,0,0,0,0,0,0,0,0,0
211.65,-1920,-1096,-30200,26843,-1945,-4043,58,15,197,81,47,81,198,163,158,220,34,58,170,117,235,126,0,1,0,0,43,59,9,34,40,0,4,4,0,1,0,0,1,0,0,0,1,0,1,0,0,0,0,0,0,0,0,0,0,0,0,0,0,0,0,0,0,0,0,0,0,0,0,0,0,0,0,0,0,0,0,0,0,0,0,0,0,0,0,0,0,0,0,0,0,0
211.66,-1920,-1096,-30200,26843,-1945,-4043,58,15,197,81,47,81,198,163,158,220,34,58,170,117,235,126,0,1,0,0,43,59,9,34,40,0,4,4,0,1,0,0,1,0,0,0,1,0,1,0,0,0,0,0,0,0,0,0,0,0,0,0,0,0,0,0,0,0,0,0,0,0,0,0,0,0,0,0,0,0,0,0,0,0,0,0,0,0,0,0,0,0,0,0,0,0
211.67,-1920,-1096,-30200,26843,-1945,-4043,58,15,197,81,47,81,198,163,158,220,34,58,170,117,235,126,0,1,0,0,43,59,9,34,40,0,4,4,0,1,0,0,1,0,0,0,1,0,1,0,0,0,0,0,0,0,0,0,0,0,0,0,0,0,0,0,0,0,0,0,0,0,0,0,0,0,0,0,0,0,0,0,0,0,0,0,0,0,0,0,0,0,0,0,0,0
211.68,-1920,-1096,-30200,26843,-1945,-4043,58,15,197,81,47,81,198,163,158,220,34,58,170,117,235,126,0,1,0,0,43,59,9,34,40,0,4,4,0,1,0,0,1,0,0,0,1,0,1,0,0,0,0,0,0,0,0,0,0,0,0,0,0,0,0,0,0,0,0,0,0,0,0,0,0,0,0,0,0,0,0,0,0,0,0,0,0,0,0,0,0,0,0,0,0,0
211.69,-5900,1336,-32768,31083,-2125,-4193,52,12,195,75,51,78,186,175,162,217,18,60,165,103,239,115,0,1,0,0,52,61,10,33,24,0,3,3,0,0,0,0,0,0,0,0,0,0,1,1,0,0,0,0,0,0,0,0,0,0,0,0,0,0,0,0,0,0,0,0,0,0,0,0,0,0,0,0,0,0,0,0,0,0,0,0,0,0,0,0,0,0,0,0,0,0
211.7,-5900,1336,-32768,31083,-2125,-4193,52,12,195,75,51,78,186,175,162,217,18,60,165,103,239,115,0,1,0,0,52,61,10,33,24,0,3,3,0,0,0,0,0,0,0,0,0,0,1,1,0,0,0,0,0,0,0,0,0,0,0,0,0,0,0,0,0,0,0,0,0,0,0,0,0,0,0,0,0,0,0,0,0,0,0,0,0,0,0,0,0,0,0,0,0,0
211.71,-5900,1336,-32768,31083,-2125,-4193,52,12,195,75,51,78,186,175,162,217,18,60,165,103,239,115,0,1,0,0,52,61,10,33,24,0,3,3,0,0,0,0,0,0,0,0,0,0,1,1,0,0,0,0,0,0,0,0,0,0,0,0,0,0,0,0,0,0,0,0,0,0,0,0,0,0,0,0,0,0,0,0,0,0,0,0,0,0,0,0,0,0,0,0,0,0
211.72,-5900,1336,-32768,31083,-2125,-4193,52,12,195,75,51,78,186,175,162,217,18,60,165,103,239,115,0,1,0,0,52,61,10,33,24,0,3,3,0,0,0,0,0,0,0,0,0,0,1,1,0,0,0,0,0,0,0,0,0,0,0,0,0,0,0,0,0,0,0,0,0,0,0,0,0,0,0,0,0,0,0,0,0,0,0,0,0,0,0,0,0,0,0,0,0,0
211.73,-5900,1336,-32768,31083,-2125,-4193,52,12,195,75,51,78,186,175,162,217,18,60,165,103,239,115,0,1,0,0,52,61,10,33,24,0,3,3,0,0,0,0,0,0,0,0,0,0,1,1,0,0,0,0,0,0,0,0,0,0,0,0,0,0,0,0,0,0,0,0,0,0,0,0,0,0,0,0,0,0,0,0,0,0,0,0,0,0,0,0,0,0,0,0,0,0
211.74,-5900,1336,-32768,31083,-2125,-4193,52,12,195,75,51,78,186,175,162,217,18,60,165,103,239,115,0,1,0,0,52,61,10,33,24,0,3,3,0,0,0,0,0,0,0,0,0,0,1,1,0,0,0,0,0,0,0,0,0,0,0,0,0,0,0,0,0,0,0,0,0,0,0,0,0,0,0,0,0,0,0,0,0,0,0,0,0,0,0,0,0,0,0,0,0,0
211.75,-5900,1336,-32768,31083,-2125,-4193,52,12,195,75,51,78,186,175,162,217,18,60,165,103,239,115,0,1,0,0,52,61,10,33,24,0,3,3,0,0,0,0,0,0,0,0,0,0,1,1,0,0,0,0,0,0,0,0,0,0,0,0,0,0,0,0,0,0,0,0,0,0,0,0,0,0,0,0,0,0,0,0,0,0,0,0,0,0,0,0,0,0,0,0,0,0
211.76,-5900,1336,-32768,31083,-2125,-4193,52,12,195,75,51,78,186,175,162,217,18,60,165,103,239,115,0,1,0,0,52,61,10,33,24,0,3,3,0,0,0,0,0,0,0,0,0,0,1,1,0,0,0,0,0,0,0,0,0,0,0,0,0,0,0,0,0,0,0,0,0,0,0,0,0,0,0,0,0,0,0,0,0,0,0,0,0,0,0,0,0,0,0,0,0,0
211.77,-5900,1336,-32768,31083,-2125,-4193,52,12,195,75,51,78,186,175,162,217,18,60,165,103,239,115,0,1,0,0,52,61,10,33,24,0,3,3,0,0,0,0,0,0,0,0,0,0,1,1,0,0,0,0,0,0,0,0,0,0,0,0,0,0,0,0,0,0,0,0,0,0,0,0,0,0,0,0,0,0,0,0,0,0,0,0,0,0,0,0,0,0,0,0,0,0
211.78,-5900,1336,-32768,31083,-2125,-4193,52,12,195,75,51,78,186,175,162,217,18,60,165,103,239,115,0,1,0,0,52,61,10,33,24,0,3,3,0,0,0,0,0,0,0,0,0,0,1,1,0,0,0,0,0,0,0,0,0,0,0,0,0,0,0,0,0,0,0,0,0,0,0,0,0,0,0,0,0,0,0,0,0,0,0,0,0,0,0,0,0,0,0,0,0,0
211.79,-5900,1336,-32768,31083,-2125,-4193,52,12,195,75,51,78,186,175,162,217,18,60,165,103,239,115,0,1,0,0,52,61,10,33,24,0,3,3,0,0,0,0,0,0,0,0,0,0,1,1,0,0,0,0,0,0,0,0,0,0,0,0,0,0,0,0,0,0,0,0,0,0,0,0,0,0,0,0,0,0,0,0,0,0,0,0,0,0,0,0,0,0,0,0,0,0
211.8,-5900,1336,-32768,31083,-2125,-4193,52,12,195,75,51,78,186,175,162,217,18,60,165,103,239,115,0,1,0,0,52,61,10,33,24,0,3,3,0,0,0,0,0,0,0,0,0,0,1,1,0,0,0,0,0,0,0,0,0,0,0,0,0,0,0,0,0,0,0,0,0,0,0,0,0,0,0,0,0,0,0,0,0,0,0,0,0,0,0,0,0,0,0,0,0,0
211.81,-5900,1336,-32768,31083,-2125,-4193,52,12,195,75,51,78,186,175,162,217,18,60,165,103,239,115,0,1,0,0,52,61,10,33,24,0,3,3,0,0,0,0,0,0,0,0,0,0,1,1,0,0,0,0,0,0,0,0,0,0,0,0,0,0,0,0,0,0,0,0,0,0,0,0,0,0,0,0,0,0,0,0,0,0,0,0,0,0,0,0,0,0,0,0,0,0
211.82,-5900,1336,-32768,31083,-2125,-4193,52,12,195,75,51,78,186,175,162,217,18,60,165,103,239,115,0,1,0,0,52,61,10,33,24,0,3,3,0,0,0,0,0,0,0,0,0,0,1,1,0,0,0,0,0,0,0,0,0,0,0,0,0,0,0,0,0,0,0,0,0,0,0,0,0,0,0,0,0,0,0,0,0,0,0,0,0,0,0,0,0,0,0,0,0,0
211.83,-5900,1336,-32768,31083,-2125,-4193,52,12,195,75,51,78,186,175,162,217,18,60,165,103,239,115,0,1,0,0,52,61,10,33,24,0,3,3,0,0,0,0,0,0,0,0,0,0,1,1,0,0,0,0,0,0,0,0,0,0,0,0,0,0,0,0,0,0,0,0,0,0,0,0,0,0,0,0,0,0,0,0,0,0,0,0,0,0,0,0,0,0,0,0,0,0
211.84,-8304,2756,-32768,32767,-2170,-5278,52,10,187,0,53,75,189,183,161,216,11,60,161,99,234,104,1,0,0,0,62,88,10,35,33,0,3,3,0,1,0,0,0,1,0,0,0,0,1,0,0,0,0,0,0,0,0,0,0,0,0,0,0,0,0,0,0,0,0,0,0,0,0,0,0,0,0,0,0,0,0,0,0,0,0,0,0,0,0,0,0,0,0,0,0,0
211.85,-20244,32767,-19172,13137,1384,-25306,1,5,3,0,1,4,4,1,2,2,5,1,2,4,5,0,0,2,4,0,3,5,2,2,4,0,0,3,0,3,2,0,2,4,0,1,4,0,1,4,0,0,0,0,0,0,0,0,0,0,0,0,0,0,0,0,0,0,0,0,0,0,0,0,0,0,0,0,0,0,0,0,0,0,0,0,0,0,0,0,0,0,0,0,0,0
211.86,-2768,32767,-7540,-14571,-8930,-16255,1,3,4,1,1,3,3,10,0,3,4,13,1,3,4,1,1,3,4,0,3,4,1,1,3,2,1,3,1,4,5,0,4,3,1,1,4,1,1,4,0,0,0,0,0,0,0,0,0,0,0,0,0,0,0,0,0,0,0,0,0,0,0,0,0,0,0,0,0,0,0,0,0,0,0,0,0,0,0,0,0,0,0,0,0,0
211.87,52,25448,-16716,-26808,-8758,-8493,0,3,4,1,1,3,3,12,1,2,2,15,2,4,5,16,1,2,4,0,3,5,17,2,3,8,1,2,0,3,3,6,3,4,6,0,7,4,2,2,0,0,0,0,0,0,0,0,0,0,0,0,0,0,0,0,0,0,0,0,0,0,0,0,0,0,0,0,0,0,0,0,0,0,0,0,0,0,0,0,0,0,0,0,0,0
211.88,52,25448,-16716,-26808,-8758,-8493,0,3,4,1,1,3,3,12,1,2,2,15,2,4,5,16,1,2,4,0,3,5,17,2,3,8,1,2,0,3,3,6,3,4,6,0,7,4,2,2,0,0,0,0,0,0,0,0,0,0,0,0,0,0,0,0,0,0,0,0,0,0,0,0,0,0,0,0,0,0,0,0,0,0,0,0,0,0,0,0,0,0,0,0,0,0
211.89,52,25448,-16716,-26808,-8758,-8493,0,3,4,1,1,3,3,12,1,2,2,15,2,4,5,16,1,2,4,0,3,5,17,2,3,8,1,2,0,3,3,6,3,4,6,0,7,4,2,2,0,0,0,0,0,0,0,0,0,0,0,0,0,0,0,0,0,0,0,0,0,0,0,0,0,0,0,0,0,0,0,0,0,0,0,0,0,0,0,0,0,0,0,0,0,0
211.9,52,25448,-16716,-26808,-8758,-8493,0,3,4,1,1,3,3,12,1,2,2,15,2,4,5,16,1,2,4,0,3,5,17,2,3,8,1,2,0,3,3,6,3,4,6,0,7,4,2,2,0,0,0,0,0,0,0,0,0,0,0,0,0,0,0,0,0,0,0,0,0,0,0,0,0,0,0,0,0,0,0,0,0,0,0,0,0,0,0,0,0,0,0,0,0,0
211.91,52,25448,-16716,-26808,-8758,-8493,0,3,4,1,1,3,3,12,1,2,2,15,2,4,5,16,1,2,4,0,3,5,17,2,3,8,1,2,0,3,3,6,3,4,6,0,7,4,2,2,0,0,0,0,0,0,0,0,0,0,0,0,0,0,0,0,0,0,0,0,0,0,0,0,0,0,0,0,0,0,0,0,0,0,0,0,0,0,0,0,0,0,0,0,0,0
211.92,52,25448,-16716,-26808,-8758,-8493,0,3,4,1,1,3,3,12,1,2,2,15,2,4,5,16,1,2,4,0,3,5,17,2,3,8,1,2,0,3,3,6,3,4,6,0,7,4,2,2,0,0,0,0,0,0,0,0,0,0,0,0,0,0,0,0,0,0,0,0,0,0,0,0,0,0,0,0,0,0,0,0,0,0,0,0,0,0,0,0,0,0,0,0,0,0
211.93,52,25448,-16716,-26808,-8758,-8493,0,3,4,1,1,3,3,12,1,2,2,15,2,4,5,16,1,2,4,0,3,5,17,2,3,8,1,2,0,3,3,6,3,4,6,0,7,4,2,2,0,0,0,0,0,0,0,0,0,0,0,0,0,0,0,0,0,0,0,0,0,0,0,0,0,0,0,0,0,0,0,0,0,0,0,0,0,0,0,0,0,0,0,0,0,0
211.94,52,25448,-16716,-26808,-8758,-8493,0,3,4,1,1,3,3,12,1,2,2,15,2,4,5,16,1,2,4,0,3,5,17,2,3,8,1,2,0,3,3,6,3,4,6,0,7,4,2,2,0,0,0,0,0,0,0,0,0,0,0,0,0,0,0,0,0,0,0,0,0,0,0,0,0,0,0,0,0,0,0,0,0,0,0,0,0,0,0,0,0,0,0,0,0,0
211.95,52,25448,-16716,-26808,-8758,-8493,0,3,4,1,1,3,3,12,1,2,2,15,2,4,5,16,1,2,4,0,3,5,17,2,3,8,1,2,0,3,3,6,3,4,6,0,7,4,2,2,0,0,0,0,0,0,0,0,0,0,0,0,0,0,0,0,0,0,0,0,0,0,0,0,0,0,0,0,0,0,0,0,0,0,0,0,0,0,0,0,0,0,0,0,0,0
211.96,52,25448,-16716,-26808,-8758,-8493,0,3,4,1,1,3,3,12,1,2,2,15,2,4,5,16,1,2,4,0,3,5,17,2,3,8,1,2,0,3,3,6,3,4,6,0,7,4,2,2,0,0,0,0,0,0,0,0,0,0,0,0,0,0,0,0,0,0,0,0,0,0,0,0,0,0,0,0,0,0,0,0,0,0,0,0,0,0,0,0,0,0,0,0,0,0
211.97,52,25448,-16716,-26808,-8758,-8493,0,3,4,1,1,3,3,12,1,2,2,15,2,4,5,16,1,2,4,0,3,5,17,2,3,8,1,2,0,3,3,6,3,4,6,0,7,4,2,2,0,0,0,0,0,0,0,0,0,0,0,0,0,0,0,0,0,0,0,0,0,0,0,0,0,0,0,0,0,0,0,0,0,0,0,0,0,0,0,0,0,0,0,0,0,0
211.98,52,25448,-16716,-26808,-8758,-8493,0,3,4,1,1,3,3,12,1,2,2,15,2,4,5,16,1,2,4,0,3,5,17,2,3,8,1,2,0,3,3,6,3,4,6,0,7,4,2,2,0,0,0,0,0,0,0,0,0,0,0,0,0,0,0,0,0,0,0,0,0,0,0,0,0,0,0,0,0,0,0,0,0,0,0,0,0,0,0,0,0,0,0,0,0,0
211.99,52,25448,-16716,-26808,-8758,-8493,0,3,4,1,1,3,3,12,1,2,2,15,2,4,5,16,1,2,4,0,3,5,17,2,3,8,1,2,0,3,3,6,3,4,6,0,7,4,2,2,0,0,0,0,0,0,0,0,0,0,0,0,0,0,0,0,0,0,0,0,0,0,0,0,0,0,0,0,0,0,0,0,0,0,0,0,0,0,0,0,0,0,0,0,0,0
212,52,25448,-16716,-26808,-8758,-8493,0,3,4,1,1,3,3,12,1,2,2,15,2,4,5,16,1,2,4,0,3,5,17,2,3,8,1,2,0,3,3,6,3,4,6,0,7,4,2,2,0,0,0,0,0,0,0,0,0,0,0,0,0,0,0,0,0,0,0,0,0,0,0,0,0,0,0,0,0,0,0,0,0,0,0,0,0,0,0,0,0,0,0,0,0,0
212.01,52,25448,-16716,-26808,-8758,-8493,0,3,4,1,1,3,3,12,1,2,2,15,2,4,5,16,1,2,4,0,3,5,17,2,3,8,1,2,0,3,3,6,3,4,6,0,7,4,2,2,0,0,0,0,0,0,0,0,0,0,0,0,0,0,0,0,0,0,0,0,0,0,0,0,0,0,0,0,0,0,0,0,0,0,0,0,0,0,0,0,0,0,0,0,0,0
212.02,52,25448,-16716,-26808,-8758,-8493,0,3,4,1,1,3,3,12,1,2,2,15,2,4,5,16,1,2,4,0,3,5,17,2,3,8,1,2,0,3,3,6,3,4,6,0,7,4,2,2,0,0,0,0,0,0,0,0,0,0,0,0,0,0,0,0,0,0,0,0,0,0,0,0,0,0,0,0,0,0,0,0,0,0,0,0,0,0,0,0,0,0,0,0,0,0
212.03,52,25448,-16716,-26808,-8758,-8493,0,3,4,1,1,3,3,12,1,2,2,15,2,4,5,16,1,2,4,0,3,5,17,2,3,8,1,2,0,3,3,6,3,4,6,0,7,4,2,2,0,0,0,0,0,0,0,0,0,0,0,0,0,0,0,0,0,0,0,0,0,0,0,0,0,0,0,0,0,0,0,0,0,0,0,0,0,0,0,0,0,0,0,0,0,0
212.04,52,25448,-16716,-26808,-8758,-8493,0,3,4,1,1,3,3,12,1,2,2,15,2,4,5,16,1,2,4,0,3,5,17,2,3,8,1,2,0,3,3,6,3,4,6,0,7,4,2,2,0,0,0,0,0,0,0,0,0,0,0,0,0,0,0,0,0,0,0,0,0,0,0,0,0,0,0,0,0,0,0,0,0,0,0,0,0,0,0,0,0,0,0,0,0,0
212.05,52,25448,-16716,-26808,-8758,-8493,0,3,4,1,1,3,3,12,1,2,2,15,2,4,5,16,1,2,4,0,3,5,17,2,3,8,1,2,0,3,3,6,3,4,6,0,7,4,2,2,0,0,0,0,0,0,0,0,0,0,0,0,0,0,0,0,0,0,0,0,0,0,0,0,0,0,0,0,0,0,0,0,0,0,0,0,0,0,0,0,0,0,0,0,0,0
212.06,52,25448,-16716,-26808,-8758,-8493,0,3,4,1,1,3,3,12,1,2,2,15,2,4,5,16,1,2,4,0,3,5,17,2,3,8,1,2,0,3,3,6,3,4,6,0,7,4,2,2,0,0,0,0,0,0,0,0,0,0,0,0,0,0,0,0,0,0,0,0,0,0,0,0,0,0,0,0,0,0,0,0,0,0,0,0,0,0,0,0,0,0,0,0,0,0
212.07,-1416,20968,-17472,-26767,-538,-1327,0,3,3,0,0,4,3,11,0,2,2,15,0,4,3,1,0,3,4,0,2,4,2,2,5,2,1,3,1,3,3,6,3,3,4,1,5,4,2,3,0,0,0,0,0,0,0,0,0,0,0,0,0,0,0,0,0,0,0,0,0,0,0,0,0,0,0,0,0,0,0,0,0,0,0,0,0,0,0,0,0,0,0,0,0,0
212.08,-2792,-2272,-32768,-32768,-14461,20550,2,2,3,1,0,5,3,1,3,2,2,1,5,3,2,0,4,1,3,0,1,3,0,5,1,3,2,7,4,7,3,3,6,2,2,3,4,1,4,5,0,0,0,0,0,0,0,0,0,0,0,0,0,0,0,0,0,0,0,0,0,0,0,0,0,0,0,0,0,0,0,0,0,0,0,0,0,0,0,0,0,0,0,0,0,0
212.09,-4576,-5648,-32768,-32768,-14448,22021,3,4,2,2,6,0,4,0,3,0,4,15,3,4,6,17,4,3,3,0,2,5,2,6,3,3,3,7,4,2,5,0,1,4,0,2,0,0,2,4,0,0,0,0,0,0,0,0,0,0,0,0,0,0,0,0,0,0,0,0,0,0,0,0,0,0,0,0,0,0,0,0,0,0,0,0,0,0,0,0,0,0,0,0,0,0
212.1,-7100,-10176,-32768,-32768,-13169,22426,2,6,0,0,1,6,2,10,1,6,3,11,2,9,3,15,0,0,2,0,5,2,14,3,5,6,6,4,0,3,4,7,2,4,4,0,1,6,2,0,0,0,0,0,0,0,0,0,0,0,0,0,0,0,0,0,0,0,0,0,0,0,0,0,0,0,0,0,0,0,0,0,0,0,0,0,0,0,0,0,0,0,0,0,0,0
212.11,-7100,-10176,-32768,-32768,-13169,22426,2,6,0,0,1,6,2,10,1,6,3,11,2,9,3,15,0,0,2,0,5,2,14,3,5,6,6,4,0,3,4,7,2,4,4,0,1,6,2,0,0,0,0,0,0,0,0,0,0,0,0,0,0,0,0,0,0,0,0,0,0,0,0,0,0,0,0,0,0,0,0,0,0,0,0,0,0,0,0,0,0,0,0,0,0,0
212.12,-7100,-10176,-32768,-32768,-13169,22426,2,6,0,0,1,6,2,10,1,6,3,11,2,9,3,15,0,0,2,0,5,2,14,3,5,6,6,4,0,3,4,7,2,4,4,0,1,6,2,0,0,0,0,0,0,0,0,0,0,0,0,0,0,0,0,0,0,0,0,0,0,0,0,0,0,0,0,0,0,0,0,0,0,0,0,0,0,0,0,0,0,0,0,0,0,0
212.13,-7100,-10176,-32768,-32768,-13169,22426,2,6,0,0,1,6,2,10,1,6,3,11,2,9,3,15,0,0,2,0,5,2,14,3,5,6,6,4,0,3,4,7,2,4,4,0,1,6,2,0,0,0,0,0,0,0,0,0,0,0,0,0,0,0,0,0,0,0,0,0,0,0,0,0,0,0,0,0,0,0,0,0,0,0,0,0,0,0,0,0,0,0,0,0,0,0
212.14,-10032,-15456,-32768,-32768,-11430,20962,4,6,5,0,2,1,4,12,3,2,1,1,7,6,1,0,5,3,3,0,2,6,1,1,3,0,6,7,3,2,5,1,4,3,0,6,5,0,4,0,0,0,0,0,0,0,0,0,0,0,0,0,0,0,0,0,0,0,0,0,0,0,0,0,0,0,0,0,0,0,0,0,0,0,0,0,0,0,0,0,0,0,0,0,0,0
212.15,-13076,-24776,-32768,-32768,-10232,16247,3,0,2,0,1,4,2,12,2,5,1,13,2,5,1,15,2,4,2,0,4,2,16,3,4,6,3,3,1,4,3,6,3,3,4,1,4,3,4,1,0,0,0,0,0,0,0,0,0,0,0,0,0,0,0,0,0,0,0,0,0,0,0,0,0,0,0,0,0,0,0,0,0,0,0,0,0,0,0,0,0,0,0,0,0,0
212.16,-6960,-2280,-20800,5170,419,-139,0,0,0,0,0,1,0,0,6,161,98,4,1,0,0,0,0,0,0,0,75,156,9,11,0,0,0,0,37,211,134,207,153,247,186,40,91,62,125,125,0,0,0,0,0,0,0,0,0,0,0,0,0,0,0,0,0,0,0,0,0,0,0,0,0,0,0,0,0,0,0,0,0,0,0,0,0,0,0,0,0,0,0,0,0,0
212.17,-4884,1164,-17820,3618,641,26,0,0,0,0,0,0,1,0,8,218,159,8,0,0,0,0,0,0,0,0,134,238,58,16,0,0,1,0,38,7,164,236,167,239,206,39,42,15,123,9,0,0,0,0,0,0,0,0,0,0,0,0,0,0,0,0,0,0,0,0,0,0,0,0,0,0,0,0,0,0,0,0,0,0,0,0,0,0,0,0,0,0,0,0,0,0
212.18,-4884,1164,-17820,3618,641,26,0,0,0,0,0,0,1,0,8,218,159,8,0,0,0,0,0,0,0,0,134,238,58,16,0,0,1,0,38,7,164,236,167,239,206,39,42,15,123,9,0,0,0,0,0,0,0,0,0,0,0,0,0,0,0,0,0,0,0,0,0,0,0,0,0,0,0,0,0,0,0,0,0,0,0,0,0,0,0,0,0,0,0,0,0,0
212.19,-4884,1164,-17820,3618,641,26,0,0,0,0,0,0,1,0,8,218,159,8,0,0,0,0,0,0,0,0,134,238,58,16,0,0,1,0,38,7,164,236,167,239,206,39,42,15,123,9,0,0,0,0,0,0,0,0,0,0,0,0,0,0,0,0,0,0,0,0,0,0,0,0,0,0,0,0,0,0,0,0,0,0,0,0,0,0,0,0,0,0,0,0,0,0
212.2,-4884,1164,-17820,3618,641,26,0,0,0,0,0,0,1,0,8,218,159,8,0,0,0,0,0,0,0,0,134,238,58,16,0,0,1,0,38,7,164,236,167,239,206,39,42,15,123,9,0,0,0,0,0,0,0,0,0,0,0,0,0,0,0,0,0,0,0,0,0,0,0,0,0,0,0,0,0,0,0,0,0,0,0,0,0,0,0,0,0,0,0,0,0,0
212.21,-4884,1164,-17820,3618,641,26,0,0,0,0,0,0,1,0,8,218,159,8,0,0,0,0,0,0,0,0,134,238,58,16,0,0,1,0,38,7,164,236,167,239,206,39,42,15,123,9,0,0,0,0,0,0,0,0,0,0,0,0,0,0,0,0,0,0,0,0,0,0,0,0,0,0,0,0,0,0,0,0,0,0,0,0,0,0,0,0,0,0,0,0,0,0
212.22,-3048,-1560,-15228,2903,16,328,0,0,0,0,0,0,0,0,10,255,212,27,0,2,1,0,0,0,1,0,145,237,63,16,0,0,0,0,39,35,183,247,171,231,207,45,15,4,114,201,0,0,0,0,0,0,0,0,0,0,0,0,0,0,0,0,0,0,0,0,0,0,0,0,0,0,0,0,0,0,0,0,0,0,0,0,0,0,0,0,0,0,0,0,0,0
212.23,-3048,-1560,-15228,2903,16,328,0,0,0,0,0,0,0,0,10,255,212,27,0,2,1,0,0,0,1,0,145,237,63,16,0,0,0,0,39,35,183,247,171,231,207,45,15,4,114,201,0,0,0,0,0,0,0,0,0,0,0,0,0,0,0,0,0,0,0,0,0,0,0,0,0,0,0,0,0,0,0,0,0,0,0,0,0,0,0,0,0,0,0,0,0,0
212.24,-3048,-1560,-15228,2903,16,328,0,0,0,0,0,0,0,0,10,255,212,27,0,2,1,0,0,0,1,0,145,237,63,16,0,0,0,0,39,35,183,247,171,231,207,45,15,4,114,201,0,0,0,0,0,0,0,0,0,0,0,0,0,0,0,0,0,0,0,0,0,0,0,0,0,0,0,0,0,0,0,0,0,0,0,0,0,0,0,0,0,0,0,0,0,0
212.25,-3048,-1560,-15228,2903,16,328,0,0,0,0,0,0,0,0,10,255,212,27,0,2,1,0,0,0,1,0,145,237,63,16,0,0,0,0,39,35,183,247,171,231,207,45,15,4,114,201,0,0,0,0,0,0,0,0,0,0,0,0,0,0,0,0,0,0,0,0,0,0,0,0,0,0,0,0,0,0,0,0,0,0,0,0,0,0,0,0,0,0,0,0,0,0
212.26,-3048,-1560,-15228,2903,16,328,0,0,0,0,0,0,0,0,10,255,212,27,0,2,1,0,0,0,1,0,145,237,63,16,0,0,0,0,39,35,183,247,171,231,207,45,15,4,114,201,0,0,0,0,0,0,0,0,0,0,0,0,0,0,0,0,0,0,0,0,0,0,0,0,0,0,0,0,0,0,0,0,0,0,0,0,0,0,0,0,0,0,0,0,0,0
212.27,-3048,-1560,-15228,2903,16,328,0,0,0,0,0,0,0,0,10,255,212,27,0,2,1,0,0,0,1,0,145,237,63,16,0,0,0,0,39,35,183,247,171,231,207,45,15,4,114,201,0,0,0,0,0,0,0,0,0,0,0,0,0,0,0,0,0,0,0,0,0,0,0,0,0,0,0,0,0,0,0,0,0,0,0,0,0,0,0,0,0,0,0,0,0,0
212.28,-3048,-1560,-15228,2903,16,328,0,0,0,0,0,0,0,0,10,255,212,27,0,2,1,0,0,0,1,0,145,237,63,16,0,0,0,0,39,35,183,247,171,231,207,45,15,4,114,201,0,0,0,0,0,0,0,0,0,0,0,0,0,0,0,0,0,0,0,0,0,0,0,0,0,0,0,0,0,0,0,0,0,0,0,0,0,0,0,0,0,0,0,0,0,0
212.29,-3048,-1560,-15228,2903,16,328,0,0,0,0,0,0,0,0,10,255,212,27,0,2,1,0,0,0,1,0,145,237,63,16,0,0,0,0,39,35,183,247,171,231,207,45,15,4,114,201,0,0,0,0,0,0,0,0,0,0,0,0,0,0,0,0,0,0,0,0,0,0,0,0,0,0,0,0,0,0,0,0,0,0,0,0,0,0,0,0,0,0,0,0,0,0
212.3,-3048,-1560,-15228,2903,16,328,0,0,0,0,0,0,0,0,10,255,212,27,0,2,1,0,0,0,1,0,145,237,63,16,0,0,0,0,39,35,183,247,171,231,207,45,15,4,114,201,0,0,0,0,0,0,0,0,0,0,0,0,0,0,0,0,0,0,0,0,0,0,0,0,0,0,0,0,0,0,0,0,0,0,0,0,0,0,0,0,0,0,0,0,0,0
212.31,-3048,-1560,-15228,2903,16,328,0,0,0,0,0,0,0,0,10,255,212,27,0,2,1,0,0,0,1,0,145,237,63,16,0,0,0,0,39,35,183,247,171,231,207,45,15,4,114,201,0,0,0,0,0,0,0,0,0,0,0,0,0,0,0,0,0,0,0,0,0,0,0,0,0,0,0,0,0,0,0,0,0,0,0,0,0,0,0,0,0,0,0,0,0,0
212.32,-3048,-1560,-15228,2903,16,328,0,0,0,0,0,0,0,0,10,255,212,27,0,2,1,0,0,0,1,0,145,237,63,16,0,0,0,0,39,35,183,247,171,231,207,45,15,4,114,201,0,0,0,0,0,0,0,0,0,0,0,0,0,0,0,0,0,0,0,0,0,0,0,0,0,0,0,0,0,0,0,0,0,0,0,0,0,0,0,0,0,0,0,0,0,0
212.33,-3048,-1560,-15228,2903,16,328,0,0,0,0,0,0,0,0,10,255,212,27,0,2,1,0,0,0,1,0,145,237,63,16,0,0,0,0,39,35,183,247,171,231,207,45,15,4,114,201,0,0,0,0,0,0,0,0,0,0,0,0,0,0,0,0,0,0,0,0,0,0,0,0,0,0,0,0,0,0,0,0,0,0,0,0,0,0,0,0,0,0,0,0,0,0
212.34,-3048,-1560,-15228,2903,16,328,0,0,0,0,0,0,0,0,10,255,212,27,0,2,1,0,0,0,1,0,145,237,63,16,0,0,0,0,39,35,183,247,171,231,207,45,15,4,114,201,0,0,0,0,0,0,0,0,0,0,0,0,0,0,0,0,0,0,0,0,0,0,0,0,0,0,0,0,0,0,0,0,0,0,0,0,0,0,0,0,0,0,0,0,0,0
212.35,-3048,-1560,-15228,2903,16,328,0,0,0,0,0,0,0,0,10,255,212,27,0,2,1,0,0,0,1,0,145,237,63,16,0,0,0,0,39,35,183,247,171,231,207,45,15,4,114,201,0,0,0,0,0,0,0,0,0,0,0,0,0,0,0,0,0,0,0,0,0,0,0,0,0,0,0,0,0,0,0,0,0,0,0,0,0,0,0,0,0,0,0,0,0,0
212.36,-3048,-1560,-15228,2903,16,328,0,0,0,0,0,0,0,0,10,255,212,27,0,2,1,0,0,0,1,0,145,237,63,16,0,0,0,0,39,35,183,247,171,231,207,45,15,4,114,201,0,0,0,0,0,0,0,0,0,0,0,0,0,0,0,0,0,0,0,0,0,0,0,0,0,0,0,0,0,0,0,0,0,0,0,0,0,0,0,0,0,0,0,0,0,0
212.37,-3048,-1560,-15228,2903,16,328,0,0,0,0,0,0,0,0,10,255,212,27,0,2,1,0,0,0,1,0,145,237,63,16,0,0,0,0,39,35,183,247,171,231,207,45,15,4,114,201,0,0,0,0,0,0,0,0,0,0,0,0,0,0,0,0,0,0,0,0,0,0,0,0,0,0,0,0,0,0,0,0,0,0,0,0,0,0,0,0,0,0,0,0,0,0
212.38,-3048,-1560,-15228,2903,16,328,0,0,0,0,0,0,0,0,10,255,212,27,0,2,1,0,0,0,1,0,145,237,63,16,0,0,0,0,39,35,183,247,171,231,207,45,15,4,114,201,0,0,0,0,0,0,0,0,0,0,0,0,0,0,0,0,0,0,0,0,0,0,0,0,0,0,0,0,0,0,0,0,0,0,0,0,0,0,0,0,0,0,0,0,0,0
212.39,-3048,-1560,-15228,2903,16,328,0,0,0,0,0,0,0,0,10,255,212,27,0,2,1,0,0,0,1,0,145,237,63,16,0,0,0,0,39,35,183,247,171,231,207,45,15,4,114,201,0,0,0,0,0,0,0,0,0,0,0,0,0,0,0,0,0,0,0,0,0,0,0,0,0,0,0,0,0,0,0,0,0,0,0,0,0,0,0,0,0,0,0,0,0,0
212.4,-3048,-1560,-15228,2903,16,328,0,0,0,0,0,0,0,0,10,255,212,27,0,2,1,0,0,0,1,0,145,237,63,16,0,0,0,0,39,35,183,247,171,231,207,45,15,4,114,201,0,0,0,0,0,0,0,0,0,0,0,0,0,0,0,0,0,0,0,0,0,0,0,0,0,0,0,0,0,0,0,0,0,0,0,0,0,0,0,0,0,0,0,0,0,0
212.41,-3048,-1560,-15228,2903,16,328,0,0,0,0,0,0,0,0,10,255,212,27,0,2,1,0,0,0,1,0,145,237,63,16,0,0,0,0,39,35,183,247,171,231,207,45,15,4,114,201,0,0,0,0,0,0,0,0,0,0,0,0,0,0,0,0,0,0,0,0,0,0,0,0,0,0,0,0,0,0,0,0,0,0,0,0,0,0,0,0,0,0,0,0,0,0
212.42,-3048,-1560,-15228,2903,16,328,0,0,0,0,0,0,0,0,10,255,212,27,0,2,1,0,0,0,1,0,145,237,63,16,0,0,0,0,39,35,183,247,171,231,207,45,15,4,114,201,0,0,0,0,0,0,0,0,0,0,0,0,0,0,0,0,0,0,0,0,0,0,0,0,0,0,0,0,0,0,0,0,0,0,0,0,0,0,0,0,0,0,0,0,0,0
212.43,-3048,-1560,-15228,2903,16,328,0,0,0,0,0,0,0,0,10,255,212,27,0,2,1,0,0,0,1,0,145,237,63,16,0,0,0,0,39,35,183,247,171,231,207,45,15,4,114,201,0,0,0,0,0,0,0,0,0,0,0,0,0,0,0,0,0,0,0,0,0,0,0,0,0,0,0,0,0,0,0,0,0,0,0,0,0,0,0,0,0,0,0,0,0,0
212.44,-3200,-628,-15892,357,4474,-368,0,0,0,0,0,0,0,0,15,117,7,9,0,1,1,0,0,0,1,0,93,86,9,14,1,0,0,0,44,74,77,37,150,17,207,17,47,214,129,47,0,0,0,0,0,0,0,0,0,0,0,0,0,0,0,0,0,0,0,0,0,0,0,0,0,0,0,0,0,0,0,0,0,0,0,0,0,0,0,0,0,0,0,0,0,0
212.45,-3160,-1700,-15796,341,3948,-273,0,1,0,0,0,0,0,0,17,127,15,9,82,214,68,16,0,0,0,0,46,241,6,8,0,0,0,0,32,247,198,20,21,165,196,243,117,227,97,131,0,0,0,0,0,0,0,0,0,0,0,0,0,0,0,0,0,0,0,0,0,0,0,0,0,0,0,0,0,0,0,0,0,0,0,0,0,0,0,0,0,0,0,0,0,0
212.46,-2868,-1872,-16368,344,3622,-255,0,0,0,0,1,0,0,0,11,98,231,9,95,210,55,16,0,0,0,0,40,211,5,7,0,0,0,1,32,243,216,24,12,157,192,231,131,227,101,139,0,0,0,0,0,0,0,0,0,0,0,0,0,0,0,0,0,0,0,0,0,0,0,0,0,0,0,0,0,0,0,0,0,0,0,0,0,0,0,0,0,0,0,0,0,0
212.47,-3512,-1272,-15852,360,3317,-219,0,1,0,0,0,0,0,0,11,109,225,8,105,223,67,16,1,1,0,0,36,185,4,6,0,0,0,0,30,231,216,26,15,163,189,211,140,227,114,129,0,0,0,0,0,0,0,0,0,0,0,0,0,0,0,0,0,0,0,0,0,0,0,0,0,0,0,0,0,0,0,0,0,0,0,0,0,0,0,0,0,0,0,0,0,0
212.48,-3512,-1272,-15852,360,3317,-219,0,1,0,0,0,0,0,0,11,109,225,8,105,223,67,16,1,1,0,0,36,185,4,6,0,0,0,0,30,231,216,26,15,163,189,211,140,227,114,129,0,0,0,0,0,0,0,0,0,0,0,0,0,0,0,0,0,0,0,0,0,0,0,0,0,0,0,0,0,0,0,0,0,0,0,0,0,0,0,0,0,0,0,0,0,0
212.49,-3512,-1272,-15852,360,3317,-219,0,1,0,0,0,0,0,0,11,109,225,8,105,223,67,16,1,1,0,0,36,185,4,6,0,0,0,0,30,231,216,26,15,163,189,211,140,227,114,129,0,0,0,0,0,0,0,0,0,0,0,0,0,0,0,0,0,0,0,0,0,0,0,0,0,0,0,0,0,0,0,0,0,0,0,0,0,0,0,0,0,0,0,0,0,0
212.5,-3512,-1272,-15852,360,3317,-219,0,1,0,0,0,0,0,0,11,109,225,8,105,223,67,16,1,1,0,0,36,185,4,6,0,0,0,0,30,231,216,26,15,163,189,211,140,227,114,129,0,0,0,0,0,0,0,0,0,0,0,0,0,0,0,0,0,0,0,0,0,0,0,0,0,0,0,0,0,0,0,0,0,0,0,0,0,0,0,0,0,0,0,0,0,0
212.51,-3092,-1400,-15732,865,3268,-306,0,0,0,0,0,0,0,0,10,121,237,8,114,241,95,16,0,0,0,0,32,180,4,6,1,0,0,0,27,157,227,30,4,95,174,191,167,242,129,184,0,0,0,0,0,0,0,0,0,0,0,0,0,0,0,0,0,0,0,0,0,0,0,0,0,0,0,0,0,0,0,0,0,0,0,0,0,0,0,0,0,0,0,0,0,0
212.52,1552,-1692,-31072,12938,1616,-2605,41,216,180,0,232,243,151,155,156,173,0,123,196,23,42,167,0,0,1,0,44,17,28,88,75,2,10,27,1,0,0,0,1,0,0,1,0,0,0,1,0,0,0,0,0,0,0,0,0,0,0,0,0,0,0,0,0,0,0,0,0,0,0,0,0,0,0,0,0,0,0,0,0,0,0,0,0,0,0,0,0,0,0,0,0,0
212.53,764,-3612,-26892,15811,-2064,-3679,71,244,193,0,17,8,169,156,143,197,21,101,159,25,108,143,0,0,0,0,244,178,22,71,58,1,7,6,0,1,1,0,0,0,0,0,0,0,1,0,0,0,0,0,0,0,0,0,0,0,0,0,0,0,0,0,0,0,0,0,0,0,0,0,0,0,0,0,0,0,0,0,0,0,0,0,0,0,0,0,0,0,0,0,0,0
212.54,-3412,-92,-27832,20199,-1461,-2819,80,11,202,63,24,32,179,151,148,206,24,79,153,44,150,123,0,1,0,0,175,123,17,55,47,1,5,5,1,1,1,0,0,1,0,1,0,0,0,0,0,0,0,0,0,0,0,0,0,0,0,0,0,0,0,0,0,0,0,0,0,0,0,0,0,0,0,0,0,0,0,0,0,0,0,0,0,0,0,0,0,0,0,0,0,0
212.55,-60,440,-31856,22900,-3769,-3684,77,18,209,0,40,40,184,148,146,203,40,67,157,81,200,126,0,0,0,0,123,83,13,44,44,0,4,4,1,0,0,0,1,1,0,0,0,0,1,0,0,0,0,0,0,0,0,0,0,0,0,0,0,0,0,0,0,0,0,0,0,0,0,0,0,0,0,0,0,0,0,0,0,0,0,0,0,0,0,0,0,0,0,0,0,0
212.56,-60,440,-31856,22900,-3769,-3684,77,18,209,0,40,40,184,148,146,203,40,67,157,81,200,126,0,0,0,0,123,83,13,44,44,0,4,4,1,0,0,0,1,1,0,0,0,0,1,0,0,0,0,0,0,0,0,0,0,0,0,0,0,0,0,0,0,0,0,0,0,0,0,0,0,0,0,0,0,0,0,0,0,0,0,0,0,0,0,0,0,0,0,0,0,0
212.57,-60,440,-31856,22900,-3769,-3684,77,18,209,0,40,40,184,148,146,203,40,67,157,81,200,126,0,0,0,0,123,83,13,44,44,0,4,4,1,0,0,0,1,1,0,0,0,0,1,0,0,0,0,0,0,0,0,0,0,0,0,0,0,0,0,0,0,0,0,0,0,0,0,0,0,0,0,0,0,0,0,0,0,0,0,0,0,0,0,0,0,0,0,0,0,0
212.58,-60,440,-31856,22900,-3769,-3684,77,18,209,0,40,40,184,148,146,203,40,67,157,81,200,126,0,0,0,0,123,83,13,44,44,0,4,4,1,0,0,0,1,1,0,0,0,0,1,0,0,0,0,0,0,0,0,0,0,0,0,0,0,0,0,0,0,0,0,0,0,0,0,0,0,0,0,0,0,0,0,0,0,0,0,0,0,0,0,0,0,0,0,0,0,0
212.59,-916,-704,-31524,27844,-2754,-3880,73,19,209,90,43,63,180,157,152,212,32,62,159,98,211,111,0,0,0,0,70,51,10,34,37,0,4,4,0,1,0,0,0,1,0,0,0,0,0,0,0,0,0,0,0,0,0,0,0,0,0,0,0,0,0,0,0,0,0,0,0,0,0,0,0,0,0,0,0,0,0,0,0,0,0,0,0,0,0,0,0,0,0,0,0,0
212.6,-14316,4428,-32768,32767,-2575,-9717,114,52,217,107,71,54,113,181,137,215,199,45,97,8,7,86,0,0,0,0,139,193,18,47,0,0,1,0,1,1,0,0,0,0,0,0,0,0,0,1,0,0,0,0,0,0,0,0,0,0,0,0,0,0,0,0,0,0,0,0,0,0,0,0,0,0,0,0,0,0,0,0,0,0,0,0,0,0,0,0,0,0,0,0,0,0
212.61,-16844,4400,-32768,32767,170,-12337,179,82,242,133,75,37,65,184,79,200,115,26,85,236,174,88,0,0,0,0,172,134,18,45,0,0,1,1,1,0,1,0,1,1,0,0,1,0,1,0,0,0,0,0,0,0,0,0,0,0,0,0,0,0,0,0,0,0,0,0,0,0,0,0,0,0,0,0,0,0,0,0,0,0,0,0,0,0,0,0,0,0,0,0,0,0
212.62,-18728,-152,-32768,32767,4422,-14883,35,149,32,0,90,9,224,143,9,137,39,221,37,237,141,107,0,0,0,0,187,32,15,38,0,0,0,0,0,0,1,0,0,0,0,1,1,0,0,0,0,0,0,0,0,0,0,0,0,0,0,0,0,0,0,0,0,0,0,0,0,0,0,0,0,0,0,0,0,0,0,0,0,0,0,0,0,0,0,0,0,0,0,0,0,0
212.63,-18728,-152,-32768,32767,4422,-14883,35,149,32,0,90,9,224,143,9,137,39,221,37,237,141,107,0,0,0,0,187,32,15,38,0,0,0,0,0,0,1,0,0,0,0,1,1,0,0,0,0,0,0,0,0,0,0,0,0,0,0,0,0,0,0,0,0,0,0,0,0,0,0,0,0,0,0,0,0,0,0,0,0,0,0,0,0,0,0,0,0,0,0,0,0,0
212.64,-18728,-152,-32768,32767,4422,-14883,35,149,32,0,90,9,224,143,9,137,39,221,37,237,141,107,0,0,0,0,187,32,15,38,0,0,0,0,0,0,1,0,0,0,0,1,1,0,0,0,0,0,0,0,0,0,0,0,0,0,0,0,0,0,0,0,0,0,0,0,0,0,0,0,0,0,0,0,0,0,0,0,0,0,0,0,0,0,0,0,0,0,0,0,0,0
212.65,-18728,-152,-32768,32767,4422,-14883,35,149,32,0,90,9,224,143,9,137,39,221,37,237,141,107,0,0,0,0,187,32,15,38,0,0,0,0,0,0,1,0,0,0,0,1,1,0,0,0,0,0,0,0,0,0,0,0,0,0,0,0,0,0,0,0,0,0,0,0,0,0,0,0,0,0,0,0,0,0,0,0,0,0,0,0,0,0,0,0,0,0,0,0,0,0
212.66,-18728,-152,-32768,32767,4422,-14883,35,149,32,0,90,9,224,143,9,137,39,221,37,237,141,107,0,0,0,0,187,32,15,38,0,0,0,0,0,0,1,0,0,0,0,1,1,0,0,0,0,0,0,0,0,0,0,0,0,0,0,0,0,0,0,0,0,0,0,0,0,0,0,0,0,0,0,0,0,0,0,0,0,0,0,0,0,0,0,0,0,0,0,0,0,0
212.67,-26380,364,-32768,32767,6796,-17856,155,220,95,243,23,138,136,105,168,170,219,148,101,48,124,201,0,0,0,0,155,128,9,23,1,0,0,0,0,0,0,0,0,0,0,1,0,0,1,0,0,0,0,0,0,0,0,0,0,0,0,0,0,0,0,0,0,0,0,0,0,0,0,0,0,0,0,0,0,0,0,0,0,0,0,0,0,0,0,0,0,0,0,0,0,0
212.68,-17528,19652,-32768,32767,16740,-28035,0,0,2,0,0,0,0,0,234,60,2,86,247,179,3,4,0,0,0,0,0,1,0,0,1,0,1,0,1,0,0,0,0,0,0,1,1,0,0,0,0,0,0,0,0,0,0,0,0,0,0,0,0,0,0,0,0,0,0,0,0,0,0,0,0,0,0,0,0,0,0,0,0,0,0,0,0,0,0,0,0,0,0,0,0,0
212.69,-17528,19652,-32768,32767,16740,-28035,0,0,2,0,0,0,0,0,234,60,2,86,247,179,3,4,0,0,0,0,0,1,0,0,1,0,1,0,1,0,0,0,0,0,0,1,1,0,0,0,0,0,0,0,0,0,0,0,0,0,0,0,0,0,0,0,0,0,0,0,0,0,0,0,0,0,0,0,0,0,0,0,0,0,0,0,0,0,0,0,0,0,0,0,0,0
212.7,-17528,19652,-32768,32767,16740,-28035,0,0,2,0,0,0,0,0,234,60,2,86,247,179,3,4,0,0,0,0,0,1,0,0,1,0,1,0,1,0,0,0,0,0,0,1,1,0,0,0,0,0,0,0,0,0,0,0,0,0,0,0,0,0,0,0,0,0,0,0,0,0,0,0,0,0,0,0,0,0,0,0,0,0,0,0,0,0,0,0,0,0,0,0,0,0
212.71,-17528,19652,-32768,32767,16740,-28035,0,0,2,0,0,0,0,0,234,60,2,86,247,179,3,4,0,0,0,0,0,1,0,0,1,0,1,0,1,0,0,0,0,0,0,1,1,0,0,0,0,0,0,0,0,0,0,0,0,0,0,0,0,0,0,0,0,0,0,0,0,0,0,0,0,0,0,0,0,0,0,0,0,0,0,0,0,0,0,0,0,0,0,0,0,0
212.72,-17528,19652,-32768,32767,16740,-28035,0,0,2,0,0,0,0,0,234,60,2,86,247,179,3,4,0,0,0,0,0,1,0,0,1,0,1,0,1,0,0,0,0,0,0,1,1,0,0,0,0,0,0,0,0,0,0,0,0,0,0,0,0,0,0,0,0,0,0,0,0,0,0,0,0,0,0,0,0,0,0,0,0,0,0,0,0,0,0,0,0,0,0,0,0,0
212.73,-17528,19652,-32768,32767,16740,-28035,0,0,2,0,0,0,0,0,234,60,2,86,247,179,3,4,0,0,0,0,0,1,0,0,1,0,1,0,1,0,0,0,0,0,0,1,1,0,0,0,0,0,0,0,0,0,0,0,0,0,0,0,0,0,0,0,0,0,0,0,0,0,0,0,0,0,0,0,0,0,0,0,0,0,0,0,0,0,0,0,0,0,0,0,0,0
212.74,-19700,32767,-32668,32767,25823,-28057,11,4,0,0,11,2,0,0,11,3,0,64,11,3,0,2,10,2,0,0,2,0,0,10,0,0,11,4,11,2,0,0,1,0,0,12,0,2,11,4,0,0,0,0,0,0,0,0,0,0,0,0,0,0,0,0,0,0,0,0,0,0,0,0,0,0,0,0,0,0,0,0,0,0,0,0,0,0,0,0,0,0,0,0,0,0
212.75,-8604,32767,-940,32767,28930,-30802,7,4,0,0,6,2,0,11,6,4,1,15,5,4,2,16,4,5,3,0,6,3,15,6,2,7,7,5,5,5,5,0,7,3,5,4,2,3,4,6,0,0,0,0,0,0,0,0,0,0,0,0,0,0,0,0,0,0,0,0,0,0,0,0,0,0,0,0,0,0,0,0,0,0,0,0,0,0,0,0,0,0,0,0,0,0
212.76,-21128,32767,-19716,9530,-1239,-26417,2,3,3,0,2,4,3,11,2,3,3,13,0,5,4,1,2,3,7,0,4,5,1,1,6,1,1,3,0,4,5,5,1,5,4,1,4,4,1,3,0,0,0,0,0,0,0,0,0,0,0,0,0,0,0,0,0,0,0,0,0,0,0,0,0,0,0,0,0,0,0,0,0,0,0,0,0,0,0,0,0,0,0,0,0,0
212.77,-4148,32767,-8640,-16350,-10279,-19931,2,3,5,0,2,2,5,12,2,2,4,14,2,3,5,16,1,3,4,0,3,4,16,2,4,8,1,5,0,3,4,1,4,4,2,1,4,1,1,4,0,0,0,0,0,0,0,0,0,0,0,0,0,0,0,0,0,0,0,0,0,0,0,0,0,0,0,0,0,0,0,0,0,0,0,0,0,0,0,0,0,0,0,0,0,0
212.78,-4148,32767,-8640,-16350,-10279,-19931,2,3,5,0,2,2,5,12,2,2,4,14,2,3,5,16,1,3,4,0,3,4,16,2,4,8,1,5,0,3,4,1,4,4,2,1,4,1,1,4,0,0,0,0,0,0,0,0,0,0,0,0,0,0,0,0,0,0,0,0,0,0,0,0,0,0,0,0,0,0,0,0,0,0,0,0,0,0,0,0,0,0,0,0,0,0
212.79,-4148,32767,-8640,-16350,-10279,-19931,2,3,5,0,2,2,5,12,2,2,4,14,2,3,5,16,1,3,4,0,3,4,16,2,4,8,1,5,0,3,4,1,4,4,2,1,4,1,1,4,0,0,0,0,0,0,0,0,0,0,0,0,0,0,0,0,0,0,0,0,0,0,0,0,0,0,0,0,0,0,0,0,0,0,0,0,0,0,0,0,0,0,0,0,0,0
212.8,-4148,32767,-8640,-16350,-10279,-19931,2,3,5,0,2,2,5,12,2,2,4,14,2,3,5,16,1,3,4,0,3,4,16,2,4,8,1,5,0,3,4,1,4,4,2,1,4,1,1,4,0,0,0,0,0,0,0,0,0,0,0,0,0,0,0,0,0,0,0,0,0,0,0,0,0,0,0,0,0,0,0,0,0,0,0,0,0,0,0,0,0,0,0,0,0,0
212.81,-11596,21264,-12636,-23061,-1528,2528,4,3,5,0,3,1,2,1,2,3,3,1,3,4,3,1,3,3,3,0,2,5,1,1,4,0,2,3,2,4,3,1,2,3,0,2,3,1,2,3,0,0,0,0,0,0,0,0,0,0,0,0,0,0,0,0,0,0,0,0,0,0,0,0,0,0,0,0,0,0,0,0,0,0,0,0,0,0,0,0,0,0,0,0,0,0
212.82,-11596,21264,-12636,-23061,-1528,2528,4,3,5,0,3,1,2,1,2,3,3,1,3,4,3,1,3,3,3,0,2,5,1,1,4,0,2,3,2,4,3,1,2,3,0,2,3,1,2,3,0,0,0,0,0,0,0,0,0,0,0,0,0,0,0,0,0,0,0,0,0,0,0,0,0,0,0,0,0,0,0,0,0,0,0,0,0,0,0,0,0,0,0,0,0,0
212.83,-11596,21264,-12636,-23061,-1528,2528,4,3,5,0,3,1,2,1,2,3,3,1,3,4,3,1,3,3,3,0,2,5,1,1,4,0,2,3,2,4,3,1,2,3,0,2,3,1,2,3,0,0,0,0,0,0,0,0,0,0,0,0,0,0,0,0,0,0,0,0,0,0,0,0,0,0,0,0,0,0,0,0,0,0,0,0,0,0,0,0,0,0,0,0,0,0
212.84,-11596,21264,-12636,-23061,-1528,2528,4,3,5,0,3,1,2,1,2,3,3,1,3,4,3,1,3,3,3,0,2,5,1,1,4,0,2,3,2,4,3,1,2,3,0,2,3,1,2,3,0,0,0,0,0,0,0,0,0,0,0,0,0,0,0,0,0,0,0,0,0,0,0,0,0,0,0,0,0,0,0,0,0,0,0,0,0,0,0,0,0,0,0,0,0,0
212.85,-11596,21264,-12636,-23061,-1528,2528,4,3,5,0,3,1,2,1,2,3,3,1,3,4,3,1,3,3,3,0,2,5,1,1,4,0,2,3,2,4,3,1,2,3,0,2,3,1,2,3,0,0,0,0,0,0,0,0,0,0,0,0,0,0,0,0,0,0,0,0,0,0,0,0,0,0,0,0,0,0,0,0,0,0,0,0,0,0,0,0,0,0,0,0,0,0
212.86,-11596,21264,-12636,-23061,-1528,2528,4,3,5,0,3,1,2,1,2,3,3,1,3,4,3,1,3,3,3,0,2,5,1,1,4,0,2,3,2,4,3,1,2,3,0,2,3,1,2,3,0,0,0,0,0,0,0,0,0,0,0,0,0,0,0,0,0,0,0,0,0,0,0,0,0,0,0,0,0,0,0,0,0,0,0,0,0,0,0,0,0,0,0,0,0,0
212.87,-11596,21264,-12636,-23061,-1528,2528,4,3,5,0,3,1,2,1,2,3,3,1,3,4,3,1,3,3,3,0,2,5,1,1,4,0,2,3,2,4,3,1,2,3,0,2,3,1,2,3,0,0,0,0,0,0,0,0,0,0,0,0,0,0,0,0,0,0,0,0,0,0,0,0,0,0,0,0,0,0,0,0,0,0,0,0,0,0,0,0,0,0,0,0,0,0
212.88,-11596,21264,-12636,-23061,-1528,2528,4,3,5,0,3,1,2,1,2,3,3,1,3,4,3,1,3,3,3,0,2,5,1,1,4,0,2,3,2,4,3,1,2,3,0,2,3,1,2,3,0,0,0,0,0,0,0,0,0,0,0,0,0,0,0,0,0,0,0,0,0,0,0,0,0,0,0,0,0,0,0,0,0,0,0,0,0,0,0,0,0,0,0,0,0,0
212.89,-11596,21264,-12636,-23061,-1528,2528,4,3,5,0,3,1,2,1,2,3,3,1,3,4,3,1,3,3,3,0,2,5,1,1,4,0,2,3,2,4,3,1,2,3,0,2,3,1,2,3,0,0,0,0,0,0,0,0,0,0,0,0,0,0,0,0,0,0,0,0,0,0,0,0,0,0,0,0,0,0,0,0,0,0,0,0,0,0,0,0,0,0,0,0,0,0
212.9,-11596,21264,-12636,-23061,-1528,2528,4,3,5,0,3,1,2,1,2,3,3,1,3,4,3,1,3,3,3,0,2,5,1,1,4,0,2,3,2,4,3,1,2,3,0,2,3,1,2,3,0,0,0,0,0,0,0,0,0,0,0,0,0,0,0,0,0,0,0,0,0,0,0,0,0,0,0,0,0,0,0,0,0,0,0,0,0,0,0,0,0,0,0,0,0,0
212.91,-11596,21264,-12636,-23061,-1528,2528,4,3,5,0,3,1,2,1,2,3,3,1,3,4,3,1,3,3,3,0,2,5,1,1,4,0,2,3,2,4,3,1,2,3,0,2,3,1,2,3,0,0,0,0,0,0,0,0,0,0,0,0,0,0,0,0,0,0,0,0,0,0,0,0,0,0,0,0,0,0,0,0,0,0,0,0,0,0,0,0,0,0,0,0,0,0
212.92,-11596,21264,-12636,-23061,-1528,2528,4,3,5,0,3,1,2,1,2,3,3,1,3,4,3,1,3,3,3,0,2,5,1,1,4,0,2,3,2,4,3,1,2,3,0,2,3,1,2,3,0,0,0,0,0,0,0,0,0,0,0,0,0,0,0,0,0,0,0,0,0,0,0,0,0,0,0,0,0,0,0,0,0,0,0,0,0,0,0,0,0,0,0,0,0,0
212.93,-11596,21264,-12636,-23061,-1528,2528,4,3,5,0,3,1,2,1,2,3,3,1,3,4,3,1,3,3,3,0,2,5,1,1,4,0,2,3,2,4,3,1,2,3,0,2,3,1,2,3,0,0,0,0,0,0,0,0,0,0,0,0,0,0,0,0,0,0,0,0,0,0,0,0,0,0,0,0,0,0,0,0,0,0,0,0,0,0,0,0,0,0,0,0,0,0
212.94,-11596,21264,-12636,-23061,-1528,2528,4,3,5,0,3,1,2,1,2,3,3,1,3,4,3,1,3,3,3,0,2,5,1,1,4,0,2,3,2,4,3,1,2,3,0,2,3,1,2,3,0,0,0,0,0,0,0,0,0,0,0,0,0,0,0,0,0,0,0,0,0,0,0,0,0,0,0,0,0,0,0,0,0,0,0,0,0,0,0,0,0,0,0,0,0,0
212.95,-11596,21264,-12636,-23061,-1528,2528,4,3,5,0,3,1,2,1,2,3,3,1,3,4,3,1,3,3,3,0,2,5,1,1,4,0,2,3,2,4,3,1,2,3,0,2,3,1,2,3,0,0,0,0,0,0,0,0,0,0,0,0,0,0,0,0,0,0,0,0,0,0,0,0,0,0,0,0,0,0,0,0,0,0,0,0,0,0,0,0,0,0,0,0,0,0
212.96,-11596,21264,-12636,-23061,-1528,2528,4,3,5,0,3,1,2,1,2,3,3,1,3,4,3,1,3,3,3,0,2,5,1,1,4,0,2,3,2,4,3,1,2,3,0,2,3,1,2,3,0,0,0,0,0,0,0,0,0,0,0,0,0,0,0,0,0,0,0,0,0,0,0,0,0,0,0,0,0,0,0,0,0,0,0,0,0,0,0,0,0,0,0,0,0,0
212.97,-11596,21264,-12636,-23061,-1528,2528,4,3,5,0,3,1,2,1,2,3,3,1,3,4,3,1,3,3,3,0,2,5,1,1,4,0,2,3,2,4,3,1,2,3,0,2,3,1,2,3,0,0,0,0,0,0,0,0,0,0,0,0,0,0,0,0,0,0,0,0,0,0,0,0,0,0,0,0,0,0,0,0,0,0,0,0,0,0,0,0,0,0,0,0,0,0
212.98,-11596,21264,-12636,-23061,-1528,2528,4,3,5,0,3,1,2,1,2,3,3,1,3,4,3,1,3,3,3,0,2,5,1,1,4,0,2,3,2,4,3,1,2,3,0,2,3,1,2,3,0,0,0,0,0,0,0,0,0,0,0,0,0,0,0,0,0,0,0,0,0,0,0,0,0,0,0,0,0,0,0,0,0,0,0,0,0,0,0,0,0,0,0,0,0,0
212.99,-11596,21264,-12636,-23061,-1528,2528,4,3,5,0,3,1,2,1,2,3,3,1,3,4,3,1,3,3,3,0,2,5,1,1,4,0,2,3,2,4,3,1,2,3,0,2,3,1,2,3,0,0,0,0,0,0,0,0,0,0,0,0,0,0,0,0,0,0,0,0,0,0,0,0,0,0,0,0,0,0,0,0,0,0,0,0,0,0,0,0,0,0,0,0,0,0
213,-11596,21264,-12636,-23061,-1528,2528,4,3,5,0,3,1,2,1,2,3,3,1,3,4,3,1,3,3,3,0,2,5,1,1,4,0,2,3,2,4,3,1,2,3,0,2,3,1,2,3,0,0,0,0,0,0,0,0,0,0,0,0,0,0,0,0,0,0,0,0,0,0,0,0,0,0,0,0,0,0,0,0,0,0,0,0,0,0,0,0,0,0,0,0,0,0
213.01,-11596,21264,-12636,-23061,-1528,2528,4,3,5,0,3,1,2,1,2,3,3,1,3,4,3,1,3,3,3,0,2,5,1,1,4,0,2,3,2,4,3,1,2,3,0,2,3,1,2,3,0,0,0,0,0,0,0,0,0,0,0,0,0,0,0,0,0,0,0,0,0,0,0,0,0,0,0,0,0,0,0,0,0,0,0,0,0,0,0,0,0,0,0,0,0,0
213.02,-11596,21264,-12636,-23061,-1528,2528,4,3,5,0,3,1,2,1,2,3,3,1,3,4,3,1,3,3,3,0,2,5,1,1,4,0,2,3,2,4,3,1,2,3,0,2,3,1,2,3,0,0,0,0,0,0,0,0,0,0,0,0,0,0,0,0,0,0,0,0,0,0,0,0,0,0,0,0,0,0,0,0,0,0,0,0,0,0,0,0,0,0,0,0,0,0
213.03,-11596,21264,-12636,-23061,-1528,2528,4,3,5,0,3,1,2,1,2,3,3,1,3,4,3,1,3,3,3,0,2,5,1,1,4,0,2,3,2,4,3,1,2,3,0,2,3,1,2,3,0,0,0,0,0,0,0,0,0,0,0,0,0,0,0,0,0,0,0,0,0,0,0,0,0,0,0,0,0,0,0,0,0,0,0,0,0,0,0,0,0,0,0,0,0,0
213.04,-11596,21264,-12636,-23061,-1528,2528,4,3,5,0,3,1,2,1,2,3,3,1,3,4,3,1,3,3,3,0,2,5,1,1,4,0,2,3,2,4,3,1,2,3,0,2,3,1,2,3,0,0,0,0,0,0,0,0,0,0,0,0,0,0,0,0,0,0,0,0,0,0,0,0,0,0,0,0,0,0,0,0,0,0,0,0,0,0,0,0,0,0,0,0,0,0
213.05,-11596,21264,-12636,-23061,-1528,2528,4,3,5,0,3,1,2,1,2,3,3,1,3,4,3,1,3,3,3,0,2,5,1,1,4,0,2,3,2,4,3,1,2,3,0,2,3,1,2,3,0,0,0,0,0,0,0,0,0,0,0,0,0,0,0,0,0,0,0,0,0,0,0,0,0,0,0,0,0,0,0,0,0,0,0,0,0,0,0,0,0,0,0,0,0,0
213.06,-11596,21264,-12636,-23061,-1528,2528,4,3,5,0,3,1,2,1,2,3,3,1,3,4,3,1,3,3,3,0,2,5,1,1,4,0,2,3,2,4,3,1,2,3,0,2,3,1,2,3,0,0,0,0,0,0,0,0,0,0,0,0,0,0,0,0,0,0,0,0,0,0,0,0,0,0,0,0,0,0,0,0,0,0,0,0,0,0,0,0,0,0,0,0,0,0
213.07,-11596,21264,-12636,-23061,-1528,2528,4,3,5,0,3,1,2,1,2,3,3,1,3,4,3,1,3,3,3,0,2,5,1,1,4,0,2,3,2,4,3,1,2,3,0,2,3,1,2,3,0,0,0,0,0,0,0,0,0,0,0,0,0,0,0,0,0,0,0,0,0,0,0,0,0,0,0,0,0,0,0,0,0,0,0,0,0,0,0,0,0,0,0,0,0,0
213.08,-11596,21264,-12636,-23061,-1528,2528,4,3,5,0,3,1,2,1,2,3,3,1,3,4,3,1,3,3,3,0,2,5,1,1,4,0,2,3,2,4,3,1,2,3,0,2,3,1,2,3,0,0,0,0,0,0,0,0,0,0,0,0,0,0,0,0,0,0,0,0,0,0,0,0,0,0,0,0,0,0,0,0,0,0,0,0,0,0,0,0,0,0,0,0,0,0
213.09,-11596,21264,-12636,-23061,-1528,2528,4,3,5,0,3,1,2,1,2,3,3,1,3,4,3,1,3,3,3,0,2,5,1,1,4,0,2,3,2,4,3,1,2,3,0,2,3,1,2,3,0,0,0,0,0,0,0,0,0,0,0,0,0,0,0,0,0,0,0,0,0,0,0,0,0,0,0,0,0,0,0,0,0,0,0,0,0,0,0,0,0,0,0,0,0,0
213.1,-11596,21264,-12636,-23061,-1528,2528,4,3,5,0,3,1,2,1,2,3,3,1,3,4,3,1,3,3,3,0,2,5,1,1,4,0,2,3,2,4,3,1,2,3,0,2,3,1,2,3,0,0,0,0,0,0,0,0,0,0,0,0,0,0,0,0,0,0,0,0,0,0,0,0,0,0,0,0,0,0,0,0,0,0,0,0,0,0,0,0,0,0,0,0,0,0
213.11,-11596,21264,-12636,-23061,-1528,2528,4,3,5,0,3,1,2,1,2,3,3,1,3,4,3,1,3,3,3,0,2,5,1,1,4,0,2,3,2,4,3,1,2,3,0,2,3,1,2,3,0,0,0,0,0,0,0,0,0,0,0,0,0,0,0,0,0,0,0,0,0,0,0,0,0,0,0,0,0,0,0,0,0,0,0,0,0,0,0,0,0,0,0,0,0,0
213.12,-11480,20828,-11380,-25339,-9696,4116,3,3,4,0,2,3,2,12,1,3,3,14,2,3,2,15,2,2,3,0,2,3,17,3,4,8,2,3,2,2,3,7,2,3,5,1,3,3,2,2,0,0,0,0,0,0,0,0,0,0,0,0,0,0,0,0,0,0,0,0,0,0,0,0,0,0,0,0,0,0,0,0,0,0,0,0,0,0,0,0,0,0,0,0,0,0
213.13,-2276,12368,-18460,-32768,-12707,13042,3,3,3,0,2,3,3,0,2,2,2,0,3,3,3,14,2,3,4,0,2,3,16,2,2,8,2,1,2,2,2,6,4,1,1,2,4,1,2,5,0,0,0,0,0,0,0,0,0,0,0,0,0,0,0,0,0,0,0,0,0,0,0,0,0,0,0,0,0,0,0,0,0,0,0,0,0,0,0,0,0,0,0,0,0,0
213.14,-2572,10404,-21020,-32768,-13323,12304,3,7,4,0,3,0,2,0,1,1,2,2,2,5,3,1,3,4,3,0,1,3,1,2,3,0,3,4,2,2,3,0,1,2,1,2,2,0,1,2,0,0,0,0,0,0,0,0,0,0,0,0,0,0,0,0,0,0,0,0,0,0,0,0,0,0,0,0,0,0,0,0,0,0,0,0,0,0,0,0,0,0,0,0,0,0
213.15,-2196,8448,-23456,-32768,-14633,11324,1,2,2,2,1,2,2,11,0,3,3,15,1,2,2,15,1,2,3,0,3,4,16,3,3,7,1,4,2,4,2,7,2,3,3,2,4,3,4,3,0,0,0,0,0,0,0,0,0,0,0,0,0,0,0,0,0,0,0,0,0,0,0,0,0,0,0,0,0,0,0,0,0,0,0,0,0,0,0,0,0,0,0,0,0,0
213.16,-2196,8448,-23456,-32768,-14633,11324,1,2,2,2,1,2,2,11,0,3,3,15,1,2,2,15,1,2,3,0,3,4,16,3,3,7,1,4,2,4,2,7,2,3,3,2,4,3,4,3,0,0,0,0,0,0,0,0,0,0,0,0,0,0,0,0,0,0,0,0,0,0,0,0,0,0,0,0,0,0,0,0,0,0,0,0,0,0,0,0,0,0,0,0,0,0
213.17,-2196,8448,-23456,-32768,-14633,11324,1,2,2,2,1,2,2,11,0,3,3,15,1,2,2,15,1,2,3,0,3,4,16,3,3,7,1,4,2,4,2,7,2,3,3,2,4,3,4,3,0,0,0,0,0,0,0,0,0,0,0,0,0,0,0,0,0,0,0,0,0,0,0,0,0,0,0,0,0,0,0,0,0,0,0,0,0,0,0,0,0,0,0,0,0,0
213.18,-2196,8448,-23456,-32768,-14633,11324,1,2,2,2,1,2,2,11,0,3,3,15,1,2,2,15,1,2,3,0,3,4,16,3,3,7,1,4,2,4,2,7,2,3,3,2,4,3,4,3,0,0,0,0,0,0,0,0,0,0,0,0,0,0,0,0,0,0,0,0,0,0,0,0,0,0,0,0,0,0,0,0,0,0,0,0,0,0,0,0,0,0,0,0,0,0
213.19,-2196,8448,-23456,-32768,-14633,11324,1,2,2,2,1,2,2,11,0,3,3,15,1,2,2,15,1,2,3,0,3,4,16,3,3,7,1,4,2,4,2,7,2,3,3,2,4,3,4,3,0,0,0,0,0,0,0,0,0,0,0,0,0,0,0,0,0,0,0,0,0,0,0,0,0,0,0,0,0,0,0,0,0,0,0,0,0,0,0,0,0,0,0,0,0,0
213.2,-2196,8448,-23456,-32768,-14633,11324,1,2,2,2,1,2,2,11,0,3,3,15,1,2,2,15,1,2,3,0,3,4,16,3,3,7,1,4,2,4,2,7,2,3,3,2,4,3,4,3,0,0,0,0,0,0,0,0,0,0,0,0,0,0,0,0,0,0,0,0,0,0,0,0,0,0,0,0,0,0,0,0,0,0,0,0,0,0,0,0,0,0,0,0,0,0
213.21,-2196,8448,-23456,-32768,-14633,11324,1,2,2,2,1,2,2,11,0,3,3,15,1,2,2,15,1,2,3,0,3,4,16,3,3,7,1,4,2,4,2,7,2,3,3,2,4,3,4,3,0,0,0,0,0,0,0,0,0,0,0,0,0,0,0,0,0,0,0,0,0,0,0,0,0,0,0,0,0,0,0,0,0,0,0,0,0,0,0,0,0,0,0,0,0,0
213.22,-2196,8448,-23456,-32768,-14633,11324,1,2,2,2,1,2,2,11,0,3,3,15,1,2,2,15,1,2,3,0,3,4,16,3,3,7,1,4,2,4,2,7,2,3,3,2,4,3,4,3,0,0,0,0,0,0,0,0,0,0,0,0,0,0,0,0,0,0,0,0,0,0,0,0,0,0,0,0,0,0,0,0,0,0,0,0,0,0,0,0,0,0,0,0,0,0
213.23,-2196,8448,-23456,-32768,-14633,11324,1,2,2,2,1,2,2,11,0,3,3,15,1,2,2,15,1,2,3,0,3,4,16,3,3,7,1,4,2,4,2,7,2,3,3,2,4,3,4,3,0,0,0,0,0,0,0,0,0,0,0,0,0,0,0,0,0,0,0,0,0,0,0,0,0,0,0,0,0,0,0,0,0,0,0,0,0,0,0,0,0,0,0,0,0,0
213.24,-2196,8448,-23456,-32768,-14633,11324,1,2,2,2,1,2,2,11,0,3,3,15,1,2,2,15,1,2,3,0,3,4,16,3,3,7,1,4,2,4,2,7,2,3,3,2,4,3,4,3,0,0,0,0,0,0,0,0,0,0,0,0,0,0,0,0,0,0,0,0,0,0,0,0,0,0,0,0,0,0,0,0,0,0,0,0,0,0,0,0,0,0,0,0,0,0
213.25,-2196,8448,-23456,-32768,-14633,11324,1,2,2,2,1,2,2,11,0,3,3,15,1,2,2,15,1,2,3,0,3,4,16,3,3,7,1,4,2,4,2,7,2,3,3,2,4,3,4,3,0,0,0,0,0,0,0,0,0,0,0,0,0,0,0,0,0,0,0,0,0,0,0,0,0,0,0,0,0,0,0,0,0,0,0,0,0,0,0,0,0,0,0,0,0,0
213.26,-1204,7088,-26008,-32768,-15578,10430,2,2,2,0,1,3,4,11,1,3,2,14,2,2,3,2,1,0,3,0,7,2,1,3,3,0,0,1,2,1,3,5,1,3,0,2,2,2,1,4,0,0,0,0,0,0,0,0,0,0,0,0,0,0,0,0,0,0,0,0,0,0,0,0,0,0,0,0,0,0,0,0,0,0,0,0,0,0,0,0,0,0,0,0,0,0
213.27,-5236,-1152,-16192,32,3398,-166,0,0,2,0,0,0,1,0,51,217,96,56,145,44,26,95,0,0,2,0,83,71,46,18,0,0,1,0,0,0,1,0,194,255,95,4,39,178,5,197,0,0,0,0,0,0,0,0,0,0,0,0,0,0,0,0,0,0,0,0,0,0,0,0,0,0,0,0,0,0,0,0,0,0,0,0,0,0,0,0,0,0,0,0,0,0
213.28,-5236,-1152,-16192,32,3398,-166,0,0,2,0,0,0,1,0,51,217,96,56,145,44,26,95,0,0,2,0,83,71,46,18,0,0,1,0,0,0,1,0,194,255,95,4,39,178,5,197,0,0,0,0,0,0,0,0,0,0,0,0,0,0,0,0,0,0,0,0,0,0,0,0,0,0,0,0,0,0,0,0,0,0,0,0,0,0,0,0,0,0,0,0,0,0
213.29,-5236,-1152,-16192,32,3398,-166,0,0,2,0,0,0,1,0,51,217,96,56,145,44,26,95,0,0,2,0,83,71,46,18,0,0,1,0,0,0,1,0,194,255,95,4,39,178,5,197,0,0,0,0,0,0,0,0,0,0,0,0,0,0,0,0,0,0,0,0,0,0,0,0,0,0,0,0,0,0,0,0,0,0,0,0,0,0,0,0,0,0,0,0,0,0
213.3,-5236,-1152,-16192,32,3398,-166,0,0,2,0,0,0,1,0,51,217,96,56,145,44,26,95,0,0,2,0,83,71,46,18,0,0,1,0,0,0,1,0,194,255,95,4,39,178,5,197,0,0,0,0,0,0,0,0,0,0,0,0,0,0,0,0,0,0,0,0,0,0,0,0,0,0,0,0,0,0,0,0,0,0,0,0,0,0,0,0,0,0,0,0,0,0
213.31,-5236,-1152,-16192,32,3398,-166,0,0,2,0,0,0,1,0,51,217,96,56,145,44,26,95,0,0,2,0,83,71,46,18,0,0,1,0,0,0,1,0,194,255,95,4,39,178,5,197,0,0,0,0,0,0,0,0,0,0,0,0,0,0,0,0,0,0,0,0,0,0,0,0,0,0,0,0,0,0,0,0,0,0,0,0,0,0,0,0,0,0,0,0,0,0
213.32,-5236,-1152,-16192,32,3398,-166,0,0,2,0,0,0,1,0,51,217,96,56,145,44,26,95,0,0,2,0,83,71,46,18,0,0,1,0,0,0,1,0,194,255,95,4,39,178,5,197,0,0,0,0,0,0,0,0,0,0,0,0,0,0,0,0,0,0,0,0,0,0,0,0,0,0,0,0,0,0,0,0,0,0,0,0,0,0,0,0,0,0,0,0,0,0
213.33,-5236,-1152,-16192,32,3398,-166,0,0,2,0,0,0,1,0,51,217,96,56,145,44,26,95,0,0,2,0,83,71,46,18,0,0,1,0,0,0,1,0,194,255,95,4,39,178,5,197,0,0,0,0,0,0,0,0,0,0,0,0,0,0,0,0,0,0,0,0,0,0,0,0,0,0,0,0,0,0,0,0,0,0,0,0,0,0,0,0,0,0,0,0,0,0
213.34,-4252,-2328,-16228,249,3412,-184,0,0,1,0,0,0,0,0,64,224,94,77,178,50,38,95,0,0,0,0,77,50,42,17,0,0,0,0,1,0,0,0,192,8,87,218,39,167,0,195,0,0,0,0,0,0,0,0,0,0,0,0,0,0,0,0,0,0,0,0,0,0,0,0,0,0,0,0,0,0,0,0,0,0,0,0,0,0,0,0,0,0,0,0,0,0
213.35,-2688,-2512,-16392,242,3072,-149,0,1,0,0,0,0,0,0,68,235,101,94,182,47,44,93,0,0,0,0,67,243,36,15,0,0,0,0,0,0,0,0,188,34,92,205,66,153,11,203,0,0,0,0,0,0,0,0,0,0,0,0,0,0,0,0,0,0,0,0,0,0,0,0,0,0,0,0,0,0,0,0,0,0,0,0,0,0,0,0,0,0,0,0,0,0
213.36,-2888,-1312,-16420,90,2397,-92,0,0,0,0,0,0,0,0,68,236,94,103,185,62,47,93,0,0,0,0,62,216,34,13,0,0,0,0,0,0,0,0,145,31,82,191,109,159,24,228,0,0,0,0,0,0,0,0,0,0,0,0,0,0,0,0,0,0,0,0,0,0,0,0,0,0,0,0,0,0,0,0,0,0,0,0,0,0,0,0,0,0,0,0,0,0
213.37,-3120,-1512,-15876,465,2241,-81,0,0,0,0,0,0,0,0,63,229,80,107,188,71,183,82,0,0,0,0,58,219,32,14,0,0,0,0,100,252,194,94,0,123,149,135,96,147,5,246,0,0,0,0,0,0,0,0,0,0,0,0,0,0,0,0,0,0,0,0,0,0,0,0,0,0,0,0,0,0,0,0,0,0,0,0,0,0,0,0,0,0,0,0,0,0
213.38,-3120,-1512,-15876,465,2241,-81,0,0,0,0,0,0,0,0,63,229,80,107,188,71,183,82,0,0,0,0,58,219,32,14,0,0,0,0,100,252,194,94,0,123,149,135,96,147,5,246,0,0,0,0,0,0,0,0,0,0,0,0,0,0,0,0,0,0,0,0,0,0,0,0,0,0,0,0,0,0,0,0,0,0,0,0,0,0,0,0,0,0,0,0,0,0
213.39,-3120,-1512,-15876,465,2241,-81,0,0,0,0,0,0,0,0,63,229,80,107,188,71,183,82,0,0,0,0,58,219,32,14,0,0,0,0,100,252,194,94,0,123,149,135,96,147,5,246,0,0,0,0,0,0,0,0,0,0,0,0,0,0,0,0,0,0,0,0,0,0,0,0,0,0,0,0,0,0,0,0,0,0,0,0,0,0,0,0,0,0,0,0,0,0
213.4,-3120,-1512,-15876,465,2241,-81,0,0,0,0,0,0,0,0,63,229,80,107,188,71,183,82,0,0,0,0,58,219,32,14,0,0,0,0,100,252,194,94,0,123,149,135,96,147,5,246,0,0,0,0,0,0,0,0,0,0,0,0,0,0,0,0,0,0,0,0,0,0,0,0,0,0,0,0,0,0,0,0,0,0,0,0,0,0,0,0,0,0,0,0,0,0
213.41,-3120,-1512,-15876,465,2241,-81,0,0,0,0,0,0,0,0,63,229,80,107,188,71,183,82,0,0,0,0,58,219,32,14,0,0,0,0,100,252,194,94,0,123,149,135,96,147,5,246,0,0,0,0,0,0,0,0,0,0,0,0,0,0,0,0,0,0,0,0,0,0,0,0,0,0,0,0,0,0,0,0,0,0,0,0,0,0,0,0,0,0,0,0,0,0
213.42,-1632,-2372,-15508,2521,1759,-507,0,1,0,0,2,1,1,184,191,11,156,75,110,11,180,0,0,0,0,0,0,11,2,19,0,0,0,0,89,2,87,131,3,155,101,37,111,207,16,18,0,0,0,0,0,0,0,0,0,0,0,0,0,0,0,0,0,0,0,0,0,0,0,0,0,0,0,0,0,0,0,0,0,0,0,0,0,0,0,0,0,0,0,0,0,0
213.43,-2036,-1640,-15664,2829,1683,-549,0,1,0,0,4,4,4,72,48,35,243,153,204,64,211,102,1,0,0,0,34,252,3,22,0,0,0,0,123,219,71,93,158,135,14,197,64,17,120,174,0,0,0,0,0,0,0,0,0,0,0,0,0,0,0,0,0,0,0,0,0,0,0,0,0,0,0,0,0,0,0,0,0,0,0,0,0,0,0,0,0,0,0,0,0,0
213.44,-1876,-1280,-15724,3874,864,-909,49,7,7,82,91,179,143,253,94,47,254,103,210,103,82,210,0,0,0,0,187,66,11,64,12,7,84,183,118,202,213,158,202,151,74,28,33,61,48,34,0,0,0,0,0,0,0,0,0,0,0,0,0,0,0,0,0,0,0,0,0,0,0,0,0,0,0,0,0,0,0,0,0,0,0,0,0,0,0,0,0,0,0,0,0,0
213.45,-2192,-3516,-16612,3991,538,-993,68,11,10,174,120,225,185,62,147,234,149,101,207,35,243,228,0,0,0,0,185,51,12,64,18,8,85,177,110,181,190,133,171,115,9,228,24,232,209,25,0,0,0,0,0,0,0,0,0,0,0,0,0,0,0,0,0,0,0,0,0,0,0,0,0,0,0,0,0,0,0,0,0,0,0,0,0,0,0,0,0,0,0,0,0,0
213.46,-2192,-3516,-16612,3991,538,-993,68,11,10,174,120,225,185,62,147,234,149,101,207,35,243,228,0,0,0,0,185,51,12,64,18,8,85,177,110,181,190,133,171,115,9,228,24,232,209,25,0,0,0,0,0,0,0,0,0,0,0,0,0,0,0,0,0,0,0,0,0,0,0,0,0,0,0,0,0,0,0,0,0,0,0,0,0,0,0,0,0,0,0,0,0,0
213.47,-2192,-3516,-16612,3991,538,-993,68,11,10,174,120,225,185,62,147,234,149,101,207,35,243,228,0,0,0,0,185,51,12,64,18,8,85,177,110,181,190,133,171,115,9,228,24,232,209,25,0,0,0,0,0,0,0,0,0,0,0,0,0,0,0,0,0,0,0,0,0,0,0,0,0,0,0,0,0,0,0,0,0,0,0,0,0,0,0,0,0,0,0,0,0,0
213.48,-2192,-3516,-16612,3991,538,-993,68,11,10,174,120,225,185,62,147,234,149,101,207,35,243,228,0,0,0,0,185,51,12,64,18,8,85,177,110,181,190,133,171,115,9,228,24,232,209,25,0,0,0,0,0,0,0,0,0,0,0,0,0,0,0,0,0,0,0,0,0,0,0,0,0,0,0,0,0,0,0,0,0,0,0,0,0,0,0,0,0,0,0,0,0,0
213.49,-2560,-1548,-16472,4137,378,-1115,109,47,47,229,184,32,230,112,171,204,145,164,220,38,246,0,0,0,0,0,211,58,16,69,13,10,84,165,78,140,162,119,134,75,205,176,16,107,143,17,0,0,0,0,0,0,0,0,0,0,0,0,0,0,0,0,0,0,0,0,0,0,0,0,0,0,0,0,0,0,0,0,0,0,0,0,0,0,0,0,0,0,0,0,0,0
213.5,-1932,-2292,-17236,4225,337,-1137,131,57,88,0,21,77,4,114,205,223,144,201,243,76,233,35,0,0,0,0,255,73,20,79,3,11,83,157,22,86,131,76,65,48,128,126,8,63,70,9,0,0,0,0,0,0,0,0,0,0,0,0,0,0,0,0,0,0,0,0,0,0,0,0,0,0,0,0,0,0,0,0,0,0,0,0,0,0,0,0,0,0,0,0,0,0
213.51,-5236,-1852,-24676,12466,-487,-2102,29,205,171,224,245,21,173,183,167,186,246,135,189,41,57,129,0,0,0,0,253,251,24,80,81,2,11,19,0,0,0,0,1,1,0,1,0,0,1,0,0,0,0,0,0,0,0,0,0,0,0,0,0,0,0,0,0,0,0,0,0,0,0,0,0,0,0,0,0,0,0,0,0,0,0,0,0,0,0,0,0,0,0,0,0,0
213.52,-1928,-3604,-26184,15222,-1168,-2563,36,228,175,247,22,50,224,187,173,218,2,116,169,45,115,125,0,0,0,0,183,200,19,66,59,1,7,7,0,1,1,0,0,0,0,0,0,0,0,0,0,0,0,0,0,0,0,0,0,0,0,0,0,0,0,0,0,0,0,0,0,0,0,0,0,0,0,0,0,0,0,0,0,0,0,0,0,0,0,0,0,0,0,0,0,0
213.53,-1928,-3604,-26184,15222,-1168,-2563,36,228,175,247,22,50,224,187,173,218,2,116,169,45,115,125,0,0,0,0,183,200,19,66,59,1,7,7,0,1,1,0,0,0,0,0,0,0,0,0,0,0,0,0,0,0,0,0,0,0,0,0,0,0,0,0,0,0,0,0,0,0,0,0,0,0,0,0,0,0,0,0,0,0,0,0,0,0,0,0,0,0,0,0,0,0
213.54,-1928,-3604,-26184,15222,-1168,-2563,36,228,175,247,22,50,224,187,173,218,2,116,169,45,115,125,0,0,0,0,183,200,19,66,59,1,7,7,0,1,1,0,0,0,0,0,0,0,0,0,0,0,0,0,0,0,0,0,0,0,0,0,0,0,0,0,0,0,0,0,0,0,0,0,0,0,0,0,0,0,0,0,0,0,0,0,0,0,0,0,0,0,0,0,0,0
213.55,-1928,-3604,-26184,15222,-1168,-2563,36,228,175,247,22,50,224,187,173,218,2,116,169,45,115,125,0,0,0,0,183,200,19,66,59,1,7,7,0,1,1,0,0,0,0,0,0,0,0,0,0,0,0,0,0,0,0,0,0,0,0,0,0,0,0,0,0,0,0,0,0,0,0,0,0,0,0,0,0,0,0,0,0,0,0,0,0,0,0,0,0,0,0,0,0,0
213.56,-3696,-6272,-25520,19835,-1996,-3798,48,246,180,27,36,70,246,178,153,198,248,96,167,44,131,119,0,0,0,0,155,121,16,55,52,1,6,6,0,0,0,0,1,1,0,1,0,0,0,0,0,0,0,0,0,0,0,0,0,0,0,0,0,0,0,0,0,0,0,0,0,0,0,0,0,0,0,0,0,0,0,0,0,0,0,0,0,0,0,0,0,0,0,0,0,0
213.57,396,-552,-27756,22110,-2776,-3541,29,247,179,0,51,79,242,180,153,190,252,75,181,81,164,128,0,0,1,0,117,93,11,47,48,1,5,5,0,0,0,0,1,1,0,1,0,0,1,1,0,0,0,0,0,0,0,0,0,0,0,0,0,0,0,0,0,0,0,0,0,0,0,0,0,0,0,0,0,0,0,0,0,0,0,0,0,0,0,0,0,0,0,0,0,0
213.58,-9172,3088,-32768,32767,-3406,-5637,23,1,168,0,72,91,183,213,164,202,246,83,161,91,231,114,1,0,0,0,77,114,13,39,36,0,4,3,0,0,0,0,1,0,0,0,0,0,1,0,0,0,0,0,0,0,0,0,0,0,0,0,0,0,0,0,0,0,0,0,0,0,0,0,0,0,0,0,0,0,0,0,0,0,0,0,0,0,0,0,0,0,0,0,0,0
213.59,-9172,3088,-32768,32767,-3406,-5637,23,1,168,0,72,91,183,213,164,202,246,83,161,91,231,114,1,0,0,0,77,114,13,39,36,0,4,3,0,0,0,0,1,0,0,0,0,0,1,0,0,0,0,0,0,0,0,0,0,0,0,0,0,0,0,0,0,0,0,0,0,0,0,0,0,0,0,0,0,0,0,0,0,0,0,0,0,0,0,0,0,0,0,0,0,0
213.6,-9172,3088,-32768,32767,-3406,-5637,23,1,168,0,72,91,183,213,164,202,246,83,161,91,231,114,1,0,0,0,77,114,13,39,36,0,4,3,0,0,0,0,1,0,0,0,0,0,1,0,0,0,0,0,0,0,0,0,0,0,0,0,0,0,0,0,0,0,0,0,0,0,0,0,0,0,0,0,0,0,0,0,0,0,0,0,0,0,0,0,0,0,0,0,0,0
213.61,-9172,3088,-32768,32767,-3406,-5637,23,1,168,0,72,91,183,213,164,202,246,83,161,91,231,114,1,0,0,0,77,114,13,39,36,0,4,3,0,0,0,0,1,0,0,0,0,0,1,0,0,0,0,0,0,0,0,0,0,0,0,0,0,0,0,0,0,0,0,0,0,0,0,0,0,0,0,0,0,0,0,0,0,0,0,0,0,0,0,0,0,0,0,0,0,0
213.62,-9172,3088,-32768,32767,-3406,-5637,23,1,168,0,72,91,183,213,164,202,246,83,161,91,231,114,1,0,0,0,77,114,13,39,36,0,4,3,0,0,0,0,1,0,0,0,0,0,1,0,0,0,0,0,0,0,0,0,0,0,0,0,0,0,0,0,0,0,0,0,0,0,0,0,0,0,0,0,0,0,0,0,0,0,0,0,0,0,0,0,0,0,0,0,0,0
